rt,response,time_elapsed,trial,distractor,target,type,id
10324.38000000002,bird,107031,1,practiceDistractor1,practiceTarget1,practice,18
7148.949999999793,plane,115287,2,practiceDistractor2,practiceTarget2,practice,18
18883.48499999984,dark puzzle,138439,3,4,11,unknown,18
66263.82500000001,plastic,207311,4,12,9,unknown,18
11883.83000000022,fan cover,220799,5,10,6,unknown,18
10403.600000000093,chef hat,232807,6,2,3,unknown,18
16855.8250000001,folded piece,251767,7,2,7,unknown,18
10959.345000000205,folded piece,264583,8,8,7,unknown,18
8941.330000000133,folded piece,274879,9,1,7,unknown,18
10349.499999999825,not the folded piece,288335,10,7,5,unknown,18
5423.310000000114,butterfly,295615,11,I,K,known,18
3396.555000000226,fork,300367,12,H,G,known,18
6912.994999999704,pen,308638,13,B,D,known,18
6016.849999999977,shoe,317262,14,F,C,known,18
8510.780000000028,apple,327879,15,F,A,known,18
3475.5,apple,333959,16,L,A,known,18
3846.895000000135,apple,340911,17,J,A,known,18
3332.625,chair,346847,18,A,E,known,18
3817.3449999885634,bird,69385,1,practiceDistractor1,practiceTarget1,practice,24
3891.345000010915,airplane,74887,2,practiceDistractor2,practiceTarget2,practice,24
23500.930000038352,rolling pin handle facing me,106064,3,5,9,unknown,24
9333.559999999125,vertical art,116259,4,7,1,unknown,24
8719.84999999404,spiky,125853,5,2,4,unknown,24
16261.804999958258,sideways helmet,143224,6,11,6,unknown,24
15316.229999996722,stick and ball,159401,7,11,10,unknown,24
10222.415000025649,stick and ball,171236,8,8,10,unknown,24
5212.8800000064075,stick and ball,178559,9,3,10,unknown,24
10665.900000021793,symbols,190838,10,10,12,unknown,24
3009.139999980107,cat,195458,11,A,B,known,24
3348.550000053365,chair,200418,12,H,E,known,24
4311.219999974128,car,206339,13,K,I,known,24
2418.6350000090897,tree,209621,14,D,J,known,24
2509.4699999899603,fork,212997,15,D,G,known,24
2575.4699999815784,fork,218179,16,F,G,known,24
3279.915000020992,fork,222319,17,C,G,known,24
3027.9849999933504,flower,227477,18,G,L,known,24
2863.6249999981374,bird,656672,1,practiceDistractor1,practiceTarget1,practice,10
4492.655000009108,airplane,662536,2,practiceDistractor2,practiceTarget2,practice,10
2593.930000002729,ring,667344,3,L,F,known,10
2399.0199999971082,chair,670619,4,D,E,known,10
1837.6699999935227,dice,673576,5,J,H,known,10
6971.765000009327,butterfly,681928,6,A,K,known,10
1628.1350000062957,fork,684432,7,A,G,known,10
2433.0800000025192,fork,687984,8,C,G,known,10
2832.4350000038976,fork,692185,9,I,G,known,10
1857.7400000067428,cat,697161,10,G,B,known,10
5785.814999995637,tool,704816,11,5,12,unknown,10
6689.904999991995,long,713376,12,6,7,unknown,10
3629.9899999867193,star,717882,13,2,11,unknown,10
2475.8849999925587,long,722979,14,8,9,unknown,10
9028.729999990901,y shaped,733377,15,8,4,unknown,10
2668.409999998403,y shaped,736913,16,10,4,unknown,10
6191.444999989471,y shaped,744233,17,1,4,unknown,10
2883.7599999969825,crown,749758,18,4,3,unknown,10
4665.300000022398,bird,85098,1,practiceDistractor1,practiceTarget1,practice,39
15873.300000006566,plane,102580,2,practiceDistractor2,practiceTarget2,practice,39
10340.700000000652,insect,117544,3,A,K,known,39
5462.100000004284,utensil,126110,4,D,G,known,39
9082.400000013877,chair,136548,5,F,E,known,39
7706.700000009732,shoe,145108,6,H,C,known,39
4062.3000000196043,animal,150276,7,H,B,known,39
4801.099999982398,mammal,156681,8,I,B,known,39
5334.100000007311,feline,163120,9,J,B,known,39
5232.500000012806,flower,171460,10,B,L,known,39
10751.000000018394,bullseye,183817,11,3,6,unknown,39
24467.299999989336,many protrusions,210137,12,2,11,unknown,39
6094.000000011874,spikey,217087,13,5,4,unknown,39
8708.400000003166,ufo,227153,14,7,12,unknown,39
8922.69999999553,black and white,237181,15,7,8,unknown,39
5625.399999989895,black and white,245913,16,9,8,unknown,39
5263.8999999908265,black and white,253782,17,1,8,unknown,39
12115.699999994831,NOT black and white,269007,18,8,10,unknown,39
9142.560000531375,bird,177553,1,practiceDistractor1,practiceTarget1,practice,34
8131.369999609888,plane,188789,2,practiceDistractor2,practiceTarget2,practice,34
8165.980000048876,shoe,200173,3,K,C,known,34
6023.474999703467,fork,208801,4,F,G,known,34
8274.000000208616,apple,219681,5,L,A,known,34
8955.269999802113,chair,230740,6,I,E,known,34
6261.919999495149,pen,238856,7,I,D,known,34
6251.7450004816055,pen,248212,8,J,D,known,34
6238.840000703931,pen,257556,9,H,D,known,34
6996.999999508262,cat,266408,10,D,B,known,34
9499.270000495017,tall,277012,11,7,1,unknown,34
15938.954999670386,crunchy,295556,12,6,8,unknown,34
10296.439999714494,long,307956,13,12,5,unknown,34
23221.084999851882,ex,333032,14,2,11,unknown,34
10942.43000075221,tea,347079,15,2,9,unknown,34
7823.289999738336,tea,356507,16,3,9,unknown,34
7776.420000009239,tea,366139,17,10,9,unknown,34
11082.070000469685,y,378575,18,9,4,unknown,34
4711.769999994431,bird,109976,1,practiceDistractor1,practiceTarget1,practice,31
4692.320000001928,plane,116535,2,practiceDistractor2,practiceTarget2,practice,31
3738.4650000021793,apple,123455,3,J,A,known,31
3836.9850000017323,cat,129905,4,L,B,known,31
3770.2249999856576,dice,136287,5,E,H,known,31
3386.3649999839254,shoe,141034,6,F,C,known,31
3442.190000001574,car,146585,7,F,I,known,31
3870.2749999938533,car,153067,8,K,I,known,31
3622.639999986859,car,158548,9,G,I,known,31
3719.615000009071,pen,164131,10,I,D,known,31
9513.194999977713,spiked y,174758,11,12,4,unknown,31
8764.715000026627,pacifier,186631,12,2,9,unknown,31
7413.230000005569,chef hat,196154,13,11,3,unknown,31
22418.610000022454,squeeze,219432,14,5,10,unknown,31
12661.530000012135,circular,232950,15,5,8,unknown,31
8236.784999986412,circular,243809,16,7,8,unknown,31
7267.259999993257,circular,251939,17,6,8,unknown,31
13909.899999998743,art,267212,18,8,1,unknown,31
5789,bird,81965,1,practiceDistractor1,practiceTarget1,practice,8
5520,airplane,88870,2,practiceDistractor2,practiceTarget2,practice,8
2474,tree,94145,3,C,J,known,8
2134,flower,97156,4,G,L,known,8
1965,fruit,100000,5,F,A,known,8
3026,insect,104674,6,H,K,known,8
3254,chair,109320,7,H,E,known,8
3659,chair,115607,8,B,E,known,8
1623,chair,118349,9,D,E,known,8
1852,car,121827,10,E,I,known,8
6643,hexagon shaped item,131601,11,10,11,unknown,8
6760,weird art thing that is tall,140504,12,5,1,unknown,8
9043,object that ISNT spikey,151175,13,4,9,unknown,8
10374,blown glass art,163170,14,8,2,unknown,8
9117,it looks like waves and is all white,173915,15,8,3,unknown,8
6372,all white looks like waves,181659,16,7,3,unknown,8
3875,all white looks like waves,187406,17,6,3,unknown,8
9821,it looks like cymbols,198351,18,3,12,unknown,8
4853.204999933951,bird,885679,1,practiceDistractor1,practiceTarget1,practice,26
4854.730000020936,airplane,892640,2,practiceDistractor2,practiceTarget2,practice,26
2721.3449999690056,cat,902210,3,H,B,known,26
9168.270000023767,ring,912740,4,A,F,known,26
3180.1249999552965,fork,917780,5,C,G,known,26
2855.779999983497,pen,921741,6,J,D,known,26
5012.685000081547,sunflower,927861,7,J,L,known,26
3439.5650000078604,sunflower,933906,8,K,L,known,26
3911.850000033155,sunflower,938676,9,E,L,known,26
1921.8549999641255,car,943206,10,L,I,known,26
6736.1399999354035,cactus,951051,11,12,4,unknown,26
6151.769999996759,plunger,958310,12,2,10,unknown,26
5861.995000042953,slipper,965526,13,9,7,unknown,26
6117.075000074692,Gear,972501,14,11,6,unknown,26
9588.59499997925,Boomerang,983196,15,11,5,unknown,26
5958.125000004657,Airplane,991761,16,8,5,unknown,26
6610.444999998435,airplane,999240,17,1,5,unknown,26
6203.289999975823,chef hat,1006552,18,5,3,unknown,26
6835.34500002861,bird,125444,1,practiceDistractor1,practiceTarget1,practice,21
9465.390000026673,aeroplane,137044,2,practiceDistractor2,practiceTarget2,practice,21
1709.320000023581,cat,142241,3,H,B,known,21
1829.9849999602884,pen,144961,4,F,D,known,21
1777.170000015758,tree,148613,5,G,J,known,21
1512.9750000778586,car,150993,6,A,I,known,21
2005.115000065416,shoe,153864,7,A,C,known,21
1579.1949999984354,shoe,157312,8,L,C,known,21
1734.080000082031,shoe,160183,9,K,C,known,21
1482.9349999781698,chair,164319,10,C,E,known,21
1942.4850000068545,art,168391,11,7,4,unknown,21
4312.275000032969,none,174596,12,5,11,unknown,21
3471.8949999660254,cleaner,179180,13,1,10,unknown,21
10627.34000000637,art,191701,14,2,9,unknown,21
21262.489999993704,Monochrome,214090,15,2,8,unknown,21
1780.1149999722838,Monochrome,217241,16,3,8,unknown,21
1811.3299999386072,Monochrome,219928,17,6,8,unknown,21
9133.739999961108,antenna,230423,18,8,12,unknown,21
119943.34500003606,Bird,173894,1,practiceDistractor1,practiceTarget1,practice,16
4024.459999985993,airplane,179025,2,practiceDistractor2,practiceTarget2,practice,16
3110.8199999434873,shoe,184513,3,L,C,known,16
2620.065000024624,fork,188745,4,A,G,known,16
2064.894999959506,pen,192419,5,H,D,known,16
3080.2200000034645,butterfly,197609,6,J,K,known,16
2275.3800000064075,car,201239,7,J,I,known,16
2291.055000037886,car,206639,8,E,I,known,16
1655.7949999114498,car,209400,9,B,I,known,16
2751.604999997653,ring,213509,10,I,F,known,16
17411.044999957085,not sure,233024,11,6,10,unknown,16
8194.124999921769,shoe,243074,12,5,7,unknown,16
4045.8749999525025,ball,248475,13,3,11,unknown,16
7613.6549999937415,instrument,258195,14,12,9,unknown,16
4438.205000013113,cactus,265739,15,12,4,unknown,16
3842.479999992065,cactus,271695,16,2,4,unknown,16
3919.3949999753386,cactus,278220,17,1,4,unknown,16
5339.9699999718,mirrors,285165,18,4,8,unknown,16
4010.920000000624,bird,103266,1,practiceDistractor1,practiceTarget1,practice,20
3371.9050000072457,plane,107748,2,practiceDistractor2,practiceTarget2,practice,20
2415.580000000773,car,113605,3,A,I,known,20
2431.2250000075437,tree,116897,4,K,J,known,20
1923.1599999766331,fork,119929,5,F,G,known,20
2067.6600000006147,dice,123110,6,L,H,known,20
2199.419999989914,shoe,128420,7,L,C,known,20
1735.54999998305,shoe,131763,8,E,C,known,20
1770.8649999985937,shoe,135640,9,D,C,known,20
1515.354999981355,cat,138269,10,C,B,known,20
5644.094999996014,rubber,145274,11,6,11,unknown,20
7527.094999997644,thin,155910,12,2,9,unknown,20
3605.844999983674,feather,161123,13,7,3,unknown,20
3496.7600000090897,cymbal,166479,14,1,12,unknown,20
4870.479999983218,plunger,173214,15,1,10,unknown,20
2354.699999996228,plunger,176430,16,8,10,unknown,20
2438.5350000229664,plunger,180978,17,5,10,unknown,20
2514.295000000857,spiky,184351,18,10,4,unknown,20
4088.5199999902397,bird,76331,1,practiceDistractor1,practiceTarget1,practice,37
3680.389999994077,airplane,83126,2,practiceDistractor2,practiceTarget2,practice,37
6756.740000098944,has holes,95297,3,10,6,unknown,37
9948.284999933094,spikes all over,107851,4,3,4,unknown,37
8995.794999995269,ball shaped,117952,5,1,2,unknown,37
4836.654999991879,ribbon,124394,6,9,8,unknown,37
5475.23999994155,dog bone,132478,7,9,5,unknown,37
3401.1550000868738,dog bone,137985,8,7,5,unknown,37
5126.929999911226,dog bone,146217,9,11,5,unknown,37
3387.999999918975,cymbals,150711,10,5,12,unknown,37
2605.94499995932,car,154924,11,A,I,known,37
2099.919999949634,cat,158637,12,K,B,known,37
1667.0100000919774,tree,161661,13,H,J,known,37
1871.4850000105798,chair,164388,14,G,E,known,37
1562.5500000314787,shoe,167806,15,G,C,known,37
1643.0800000671297,shoe,172564,16,F,C,known,37
2815.94000000041,the shoe,177989,17,D,C,known,37
2686.764999991283,flower,182301,18,C,L,known,37
11619.120000046678,bird,314841,1,practiceDistractor1,practiceTarget1,practice,7
5586.684999987483,plane,323538,2,practiceDistractor2,practiceTarget2,practice,7
11578.67499999702,suction tool,340677,3,5,10,unknown,7
11477.069999964442,dog toy,354014,4,1,4,unknown,7
10315.230000007432,white object,366935,5,11,3,unknown,7
12473.73000002699,ufo shaped object,381021,6,8,12,unknown,7
22284.950000001118,plastic object with vent,405164,7,8,6,unknown,7
6932.380000012927,plastic object with vent,413958,8,9,6,unknown,7
5486.350000021048,plastic object with vent,421559,9,2,6,unknown,7
12469.975000014529,folded object,435642,10,6,7,unknown,7
3579.150000005029,cat,441833,11,D,B,known,7
2702.5099999736995,flower,446646,12,H,L,known,7
2455.7600000407547,shoe,451712,13,J,C,known,7
2591.054999968037,ring,457413,14,E,F,known,7
2907.565000001341,butterfly,463430,15,E,K,known,7
3032.2049999958836,butterfly,467823,16,I,K,known,7
4219.184999994468,butterfly,473153,17,A,K,known,7
2195.7949999487028,fork,477959,18,K,G,known,7
5005.895000009332,bird,70158,1,practiceDistractor1,practiceTarget1,practice,9
4048.1649999856018,fly,75647,2,practiceDistractor2,practiceTarget2,practice,9
6899.490000010701,long,86489,3,8,7,unknown,9
5736.464999994496,white,93598,4,11,9,unknown,9
3198.740000021644,silver,99903,5,5,12,unknown,9
5574.834999977611,black,108584,6,2,6,unknown,9
11542.96500000055,spikes,121758,7,2,4,unknown,9
3197.0000000146683,spikes,127081,8,3,4,unknown,9
2467.514999996638,spikes,132690,9,1,4,unknown,9
4290.945000015199,not spikes,138627,10,4,10,unknown,9
2508.319999993546,ring,142244,11,D,F,known,9
2351.2700000137556,cat,146483,12,K,B,known,9
1930.6700000015553,tree,150286,13,H,J,known,9
2348.200000007637,chair,154393,14,G,E,known,9
2648.5000000102445,apple,157906,15,G,A,known,9
1686.6600000066683,apple,160702,16,I,A,known,9
1385.6099999975413,apple,163204,17,L,A,known,9
2357.5650000129826,shoe,166455,18,A,C,known,9
5866.89999999362,bird,251368,1,practiceDistractor1,practiceTarget1,practice,25
8132.069999992382,flight,261361,2,practiceDistractor2,practiceTarget2,practice,25
14023.584999988088,dark,278630,3,7,11,unknown,25
10131.244999996852,small,290376,4,5,6,unknown,25
7308.055000001332,crumpled,300292,5,9,8,unknown,25
6038.060000020778,shiny,307690,6,4,2,unknown,25
3694.1200000001118,art,312744,7,4,1,unknown,25
6155.144999996992,art,319765,8,12,1,unknown,25
4158.100000000559,art,325033,9,10,1,unknown,25
6068.319999991218,white,332713,10,1,3,unknown,25
4719.4650000019465,pen,338794,11,B,D,known,25
3555.4749999719206,car,343460,12,J,I,known,25
3521.070000017062,flower,350093,13,C,L,known,25
3102.5599999993574,ring,354306,14,H,F,known,25
17670.32500001369,chair,375086,15,H,E,known,25
3795.3400000114925,chair,380993,16,K,E,known,25
4245.009999984177,chair,386348,17,G,E,known,25
4304.015000001527,fruit,393261,18,E,A,known,25
14496.105000376701,something that flys,86719,1,practiceDistractor1,practiceTarget1,practice,27
17243.894999846816,Something that is man made and flys,107071,2,practiceDistractor2,practiceTarget2,practice,27
9362.040000036359,something that blows air,120813,3,9,10,unknown,27
9703.579999506474,something that stands upright,131624,4,5,1,unknown,27
5624.804999679327,something smooth,138104,5,4,2,unknown,27
22565.954999998212,something that looks like a womans feminine product,163275,6,12,7,unknown,27
15150.380000472069,something that looks like a metal flower,179282,7,12,8,unknown,27
16665.97499884665,something that looks like a metal flower,197555,8,3,8,unknown,27
15460.38000099361,something that looks like a metal flower,214622,9,11,8,unknown,27
38041.96999967098,something that looks like it has two circles,254523,10,8,6,unknown,27
9717.104999348521,something that you smell not eat,266846,11,A,L,known,27
10055.850001052022,something that grows in the ground,278258,12,I,J,known,27
5169.490000233054,something you eat with,284534,13,H,G,known,27
7433.550000190735,something you wear on your finger,294073,14,B,F,known,27
6180.844999849796,something you sit in,302861,15,B,E,known,27
3781.5749999135733,something you sit in,309249,16,K,E,known,27
4194.899998605251,something you sit in,315300,17,C,E,known,27
4216.435000300407,something you write with,321123,18,E,D,known,27
5695.42999999976,pigeon,139802,1,practiceDistractor1,practiceTarget1,practice,35
7035.9150000003865,airplane,148203,2,practiceDistractor2,practiceTarget2,practice,35
39391.05000000016,cut up shapes that make a round object,191624,3,3,8,unknown,35
25542.830000000336,black looks like a 3d  on top of x,218801,4,7,11,unknown,35
24999.205000000075,lint roller with a bolt through it,246415,5,5,9,unknown,35
11847.775000000169,dog toy in the shape of a Y,259135,6,2,4,unknown,35
30666.999999999476,like a flying saucer with a huge satelite dish on top,291930,7,2,12,unknown,35
37555.9099999991,the same flying saucer from before also kind of looks like a spinning top,332604,8,6,12,unknown,35
19814.08500000002,still the same flying saucer spinning top,355537,9,10,12,unknown,35
23278.27999999863,and abstract sculpture sort of looks like the Jesus fish facing down,380942,10,12,1,unknown,35
5988.2300000008545,butterfly,390058,11,D,K,known,35
3612.7049999995506,apple,394788,12,L,A,known,35
12024.784999999567,dice 6 on top,409435,13,G,H,known,35
12307.499999998952,ring with big stone,424878,14,I,F,known,35
3923.4699999997392,cat,431427,15,I,B,known,35
3005.6549999990384,cat,435817,16,E,B,known,35
3151.765000000538,cat,441072,17,J,B,known,35
3234.8349999992643,shoe,447422,18,B,C,known,35
7023.369999995339,bird,144237,1,practiceDistractor1,practiceTarget1,practice,1
7699.509999991278,in the sky,153303,2,practiceDistractor2,practiceTarget2,practice,1
12216.804999989108,vented and has handles,168866,3,11,6,unknown,1
10487.510000006296,stick attatched,180969,4,2,10,unknown,1
8737.095000004047,shiny and hard,191816,5,3,1,unknown,1
13410.965000002761,has a plunger look,206338,6,12,9,unknown,1
7132.174999991548,multicolored,214334,7,12,7,unknown,1
15001.875000001746,long with a fold in the middle,230449,8,8,7,unknown,1
10176.825000002282,rounded edges,241740,9,5,7,unknown,1
5326.824999996461,prickly,247927,10,7,4,unknown,1
5332.154999996419,used to eat,255124,11,K,G,known,1
4397.705000010319,you wear,261633,12,L,C,known,1
3737.7899999992223,you sit in,266483,13,J,E,known,1
3621.710000006715,you eat,272720,14,D,A,known,1
5422.469999990426,you drive,279006,15,D,I,known,1
5199.3750000110595,you drive,286317,16,F,I,known,1
8168.615000002319,put on seatbelt,295869,17,H,I,known,1
8422.950000007404,purs,306401,18,I,B,known,1
4402.26000000257,bird,575974,1,practiceDistractor1,practiceTarget1,practice,29
5596.619999996619,fly,583183,2,practiceDistractor2,practiceTarget2,practice,29
8976.989999995567,art,596158,3,3,5,unknown,29
13539.35000000638,radio,612312,4,7,6,unknown,29
5252.249999990454,ball,619423,5,1,11,unknown,29
6894.939999998314,flower,627177,6,2,8,unknown,29
5646.630000002915,spin,633935,7,2,12,unknown,29
5231.735000008484,spin,640529,8,9,12,unknown,29
4609.185000008438,spin,646497,9,10,12,unknown,29
5845.724999991944,cactus,653704,10,12,4,unknown,29
7681.0049999912735,flower,663498,11,K,L,known,29
3461.1950000107754,ring,667818,12,I,F,known,29
5102.075000002515,fork,673777,13,A,G,known,29
4102.634999988368,dice,678994,14,C,H,known,29
3989.365000015823,cat,684842,15,C,B,known,29
2983.314999990398,cat,688681,16,E,B,known,29
2437.7999999851454,cat,694229,17,J,B,known,29
2709.199999982957,pen,698297,18,B,D,known,29
5435.8700000011595,bird,88600,1,practiceDistractor1,practiceTarget1,practice,22
3822.4000000009255,plane,93778,2,practiceDistractor2,practiceTarget2,practice,22
5224.064999998518,not spiky,102270,3,4,5,unknown,22
17737.58000000089,rolling pin,121864,4,9,3,unknown,22
6198.669999997946,hole,129418,5,11,1,unknown,22
7814.839999999094,no handle,140337,6,10,8,unknown,22
5207.745000003342,no handle,148652,7,10,2,unknown,22
10978.189999997994,clear plastic,160735,8,7,2,unknown,22
3841.4000000011583,clear plastic,166432,9,6,2,unknown,22
11434.360000002926,saucer,179472,10,2,12,unknown,22
3802.8099999974074,ring,184880,11,G,F,known,22
2843.4050000032585,shoe,190329,12,H,C,known,22
2801.4149999980873,chair,195735,13,L,E,known,22
6122.289999999339,butterfly,203464,14,J,K,known,22
3054.7399999995832,cat,208124,15,J,B,known,22
2298.5850000004575,cat,211777,16,D,B,known,22
2048.030000001745,cat,215180,17,A,B,known,22
2612.8549999993993,car,220398,18,B,I,known,22
4750.884999999471,bird,96019,1,practiceDistractor1,practiceTarget1,practice,11
4749.535000000833,plane,101624,2,practiceDistractor2,practiceTarget2,practice,11
3390.8250000004045,pen,107994,3,K,D,known,11
2741.8849999994563,shoe,111840,4,B,C,known,11
3080.00500000162,flower,116525,5,A,L,known,11
1897.240000000238,tree,121527,6,E,J,known,11
2947.599999999511,fork,126078,7,E,G,known,11
2854.9100000000326,fork,130288,8,H,G,known,11
2842.96999999971,fork,134486,9,F,G,known,11
1776.8849999993108,car,138367,10,G,I,known,11
6617.315000001341,ice thing,146839,11,10,3,unknown,11
24899.745000000636,longer plastic toy,174843,12,12,9,unknown,11
13349.2700000006,dumbbell,190798,13,11,5,unknown,11
16657.825000000244,folded cross,208311,14,8,7,unknown,11
6238.105000000389,vase,216154,15,8,2,unknown,11
2093.9300000008952,vase,220102,16,4,2,unknown,11
1852.1799999998475,vase,224058,17,6,2,unknown,11
3229.274999999703,trophy,228643,18,2,1,unknown,11
9018.210000002,bird,96355,1,practiceDistractor1,practiceTarget1,practice,17
48606.55499999848,aeroplane,145820,2,practiceDistractor2,practiceTarget2,practice,17
6327.785000001313,butterfly,157491,3,E,K,known,17
5280.754999999772,tree,165379,4,I,J,known,17
44672.41500000091,sunflower,211662,5,H,L,known,17
10398.629999996047,cat,223171,6,F,B,known,17
9856.729999999516,fruit,235115,7,F,A,known,17
18118.069999996806,fruit,254092,8,D,A,known,17
5065.904999995837,apple,260268,9,C,A,known,17
4643.875000001572,fork,266774,10,A,G,known,17
7791.839999998047,slipper,277677,11,9,7,unknown,17
4314.720000002126,wood,282851,12,1,5,unknown,17
8997.105000002193,thread,294957,13,12,10,unknown,17
7979.534999998577,wood,305050,14,4,11,unknown,17
6115.784999994503,plastic,312788,15,4,6,unknown,17
10208.344999999099,headphones,324355,16,3,6,unknown,17
7471.770000003744,headphones,332692,17,8,6,unknown,17
8943.440000002738,bottle,343206,18,6,2,unknown,17
7181.810000000041,bird,119254,1,practiceDistractor1,practiceTarget1,practice,28
6660.8350000005885,airplane,127018,2,practiceDistractor2,practiceTarget2,practice,28
24801.985000000073,round with handle,155072,3,11,10,unknown,28
12283.644999999495,3 pronged,169459,4,7,5,unknown,28
24400.46000000072,3  pronged,195715,5,2,9,unknown,28
8585.85999999923,crown,206158,6,1,3,unknown,28
10405.349999999074,cymbals,218167,7,1,12,unknown,28
14791.180000000168,cymbals,234813,8,4,12,unknown,28
5776.825000000827,cymbals,241944,9,6,12,unknown,28
8039.354999998963,not cymbals,253089,10,12,8,unknown,28
4406.399999999849,fork,259600,11,H,G,known,28
5934.175000000338,butterfly,266639,12,J,K,known,28
4315.75500000146,shoe,272311,13,B,C,known,28
4404.750000001513,pen,278072,14,A,D,known,28
3904.849999998987,car,283082,15,A,I,known,28
8704.07999999955,car,294390,16,L,I,known,28
3607.6150000008056,car,300104,17,F,I,known,28
4789.205000000948,chair,307998,18,I,E,known,28
7541.945000000851,Bird,136633,1,practiceDistractor1,practiceTarget1,practice,6
5098.680000000051,plane,143838,2,practiceDistractor2,practiceTarget2,practice,6
16392.095000000147,black and white,164463,3,11,8,unknown,6
6964.400000000751,longer one,172786,4,6,5,unknown,6
17886.51500000016,like a cymbal,193282,5,9,12,unknown,6
14144.96999999939,not the Y shaped one,210036,6,4,2,unknown,6
17603.699999999662,one with a stick,229500,7,4,10,unknown,6
20953.45499999984,not the trophy,252564,8,1,10,unknown,6
9109.66499999995,the darker one,262534,9,3,10,unknown,6
14067.785000000207,the lighter one,279208,10,10,7,unknown,6
5402.839999999735,apple,285718,11,K,A,known,6
4149.954999999842,chair,292978,12,L,E,known,6
3621.4900000004563,pen,298460,13,G,D,known,6
2948.9250000005704,cat,302270,14,J,B,known,6
4768.235000000452,ring,308648,15,J,F,known,6
9265.204999999667,goes on finger,319272,16,C,F,known,6
5702.80500000075,not the car,326836,17,I,F,known,6
7302.094999999972,die,336002,18,F,H,known,6
5073.909999977332,bird,86744,1,practiceDistractor1,practiceTarget1,practice,19
7300.380000000587,airplane,97152,2,practiceDistractor2,practiceTarget2,practice,19
11034.91000001668,Y shaped spongy stuff,113841,3,7,4,unknown,19
21578.324999980396,rolling pin with round appendices,136777,4,11,9,unknown,19
8264.569999999367,flower,145898,5,12,8,unknown,19
5276.069999992615,pump,152530,6,2,10,unknown,19
11440.704999986337,plastic holed device,165075,7,2,6,unknown,19
7944.719999999506,plastic holed device,175123,8,5,6,unknown,19
7217.590000014752,plastic holed device,184947,9,3,6,unknown,19
5559.154999995371,art,191363,10,6,1,unknown,19
3886.479999986477,shoe,197356,11,F,C,known,19
3412.240000005113,car,202124,12,K,I,known,19
3084.919999993872,chair,206564,13,J,E,known,19
3629.719999997178,cat,213300,14,H,B,known,19
3469.505000015488,flower,218125,15,H,L,known,19
3697.4999999802094,flower,223428,16,G,L,known,19
3161.6400000057183,flower,228453,17,A,L,known,19
3818.7550000147894,pen,233629,18,L,D,known,19
3689.620000019204,bird,119387,1,practiceDistractor1,practiceTarget1,practice,12
2262.0899999747053,plane,123265,2,practiceDistractor2,practiceTarget2,practice,12
7526.56000002753,rounder bulby one,134793,3,11,2,unknown,12
8796.039999986533,NOT the pump,146698,4,10,6,unknown,12
5153.46000000136,pointer object,153710,5,8,5,unknown,12
4417.170000029728,the spikey one,159054,6,7,4,unknown,12
16651.36999997776,the one with the triangle on top,178348,7,7,1,unknown,12
11826.754999987315,the one with the triangle on top,192033,8,9,1,unknown,12
5669.659999955911,the one with the triangle on top,199312,9,12,1,unknown,12
5963.120000029448,NOT the one you just clicked,206880,10,1,3,unknown,12
3845.180000003893,butterfly,213833,11,A,K,known,12
4024.3200000259094,pen,219472,12,C,D,known,12
6152.074999990873,chair,227232,13,H,E,known,12
4296.710000024177,tree,233385,14,L,J,known,12
2506.475000001956,cat,237249,15,L,B,known,12
2499.759999976959,cat,241361,16,I,B,known,12
5850.294999952894,cat,249324,17,G,B,known,12
5358.970000001136,ring,256540,18,B,F,known,12
3130.3599999955622,bird,89615,1,practiceDistractor1,practiceTarget1,practice,5
1992.9750000010245,plane,93216,2,practiceDistractor2,practiceTarget2,practice,5
2946.5049999998882,waves,99480,3,10,3,unknown,5
2633.2949999923585,round,105221,4,4,2,unknown,5
3902.795000001788,bop it,110483,5,5,9,unknown,5
4147.020000003977,intricate,117741,6,12,8,unknown,5
5284.319999991567,maxi pad,123884,7,12,7,unknown,5
3107.6600000087637,wings,128848,8,11,7,unknown,5
5297.189999997499,wings,135753,9,1,7,unknown,5
5888.389999992796,circles,142995,10,7,6,unknown,5
1460.57500000461,ring,145315,11,C,F,known,5
1492.9550000088057,cat,147666,12,A,B,known,5
2408.035000000382,die,153186,13,I,H,known,5
1507.995000007213,fork,156053,14,E,G,known,5
1826.4999999955762,tree,160491,15,E,J,known,5
1592.290000000503,tree,165188,16,K,J,known,5
1937.2799999982817,tree,168733,17,L,J,known,5
1914.6100000070874,pen,171502,18,J,D,known,5
10796.869999729097,bird,111689,1,practiceDistractor1,practiceTarget1,practice,30
6851.000000257045,plane,119655,2,practiceDistractor2,practiceTarget2,practice,30
11885.96999971196,stacked,134997,3,4,3,unknown,30
3823.5949999652803,art,139686,4,10,1,unknown,30
17125.184999778867,crumpled,158420,5,2,8,unknown,30
11282.585000153631,barbell,170566,6,6,5,unknown,30
8049.9999998137355,flapper,179975,7,6,12,unknown,30
7920.98500020802,flapper,188759,8,7,12,unknown,30
9053.94500028342,flapper,199927,9,11,12,unknown,30
25928.874999750406,arms,226719,10,12,9,unknown,30
4761.219999752939,apple,232340,11,K,A,known,30
12135.435000061989,cat,247589,12,F,B,known,30
4104.564999695867,fork,252807,13,I,G,known,30
3062.6199999824166,tree,257479,14,C,J,known,30
4231.3199997879565,dice,262567,15,C,H,known,30
4057.7700003050268,dice,268487,16,L,H,known,30
3815.2799997478724,dice,274418,17,D,H,known,30
6437.39499989897,chair,283465,18,H,E,known,30
8786.33000003174,brid,84921,1,practiceDistractor1,practiceTarget1,practice,33
30736.745000001974,Flight,117528,2,practiceDistractor2,practiceTarget2,practice,33
23906.610000063665,nothing,144329,3,4,11,unknown,33
12261.895000003278,yse,159219,4,7,5,unknown,33
6713.430000003427,art,167828,5,12,1,unknown,33
11935.320000047795,nothing,182470,6,8,2,unknown,33
16916.59499995876,gun barrel,200282,7,8,6,unknown,33
6059.940000064671,gun barrel,207732,8,3,6,unknown,33
3837.1749999932945,gun barrel,213526,9,10,6,unknown,33
14502.164999954402,dumbbell,228903,10,6,9,unknown,33
16964.19000008609,black hairstreak,248505,11,L,K,known,33
13188.889999990351,fork,263600,12,E,G,known,33
15874.319999944419,ring,281334,13,D,F,known,33
7091.119999997318,apple,289536,14,B,A,known,33
18205.304999952205,leather,310882,15,B,C,known,33
4309.705000021495,leather,317059,16,I,C,known,33
2988.6749999132007,leather,322156,17,H,C,known,33
16875.160000054166,white pine,340638,18,C,J,known,33
3848,bord,53586,1,practiceDistractor1,practiceTarget1,practice,2
6653,plane,62097,2,practiceDistractor2,practiceTarget2,practice,2
4099,air pump,69248,3,6,10,unknown,2
5217,spiky thing,77579,4,2,3,unknown,2
9395,art on a plac,88832,5,5,1,unknown,2
4311,spiky thing,95002,6,12,4,unknown,2
5392,wooden thing,102248,7,12,7,unknown,2
2866,wood thing,105969,8,9,7,unknown,2
3462,wood thing,110537,9,11,7,unknown,2
4900,junk,118042,10,7,8,unknown,2
2713,apple,122112,11,K,A,known,2
2048,ring,125018,12,G,F,known,2
2128,flower,129258,13,J,L,known,2
3077,dice,134196,14,D,H,known,2
1788,shoe,137842,15,D,C,known,2
1949,shoe,140898,16,I,C,known,2
1513,shoe,143520,17,B,C,known,2
2060,chair,148688,18,C,E,known,2
5112.999999895692,bird,144352,1,practiceDistractor1,practiceTarget1,practice,14
5425.999999977648,aeroplane,151396,2,practiceDistractor2,practiceTarget2,practice,14
4184.999999590218,art,159441,3,11,5,unknown,14
6848.999999463558,toy,168165,4,7,10,unknown,14
9481.000000610948,holder,180755,5,1,6,unknown,14
5463.999999687076,toy,187341,6,2,12,unknown,14
4887.999999336898,cap,193337,7,2,3,unknown,14
2782.000000588596,cap,198231,8,8,3,unknown,14
2627.0000003278255,cap,202342,9,9,3,unknown,14
4394.000000320375,toy,207600,10,3,4,unknown,14
4331.000000238419,dice,212795,11,K,H,known,14
2737.999999895692,pen,216902,12,A,D,known,14
3129.9999998882413,fork,221896,13,I,G,known,14
3092.000000178814,shoe,226602,14,L,C,known,14
2269.999999552965,cat,231986,15,L,B,known,14
7226.9999999552965,animal,240572,16,F,B,known,14
3720.9999999031425,animal,247417,17,J,B,known,14
3109.0000001713634,chair,252654,18,B,E,known,14
5910.435000005236,bird,292603,1,practiceDistractor1,practiceTarget1,practice,15
2848.6199999970268,plane,298057,2,practiceDistractor2,practiceTarget2,practice,15
2077.864999999292,flower,304229,3,B,L,known,15
6179.744999994,butterfly,312515,4,F,K,known,15
1671.2049999987357,aooke,316041,5,C,A,known,15
2191.1400000026333,tree,321337,6,D,J,known,15
1441.4600000018254,car,324639,7,D,I,known,15
1065.3549999988172,car,326561,8,E,I,known,15
903.5900000017136,car,329323,9,H,I,known,15
3587.614999996731,fork,334769,10,I,G,known,15
5627.82999999763,container,341503,11,7,2,unknown,15
4479.7099999996135,holes,349089,12,4,11,unknown,15
9415.825000003679,weights,359861,13,3,5,unknown,15
3232.625000004191,pump,365701,14,1,10,unknown,15
7941.270000002987,two piece,375503,15,1,9,unknown,15
2492.565000000468,two piece,379101,16,12,9,unknown,15
3037.804999999935,two piece,383993,17,8,9,unknown,15
7245.455000003858,one piece,392843,18,9,6,unknown,15
6668.9999999998545,bird,144767,1,practiceDistractor1,practiceTarget1,practice,3
11746.00000000099,aeroplane,157383,2,practiceDistractor2,practiceTarget2,practice,3
4005.0000000009895,pen,164952,3,F,D,known,3
9506.999999999593,butterfly,177080,4,H,K,known,3
61825.00000000073,flower,241512,5,J,L,known,3
4810.999999999709,apple,248450,6,B,A,known,3
101772.99999999924,chair,352869,7,B,E,known,3
3837.000000001339,chair,358085,8,I,E,known,3
5991,chair,365206,9,C,E,known,3
5612.000000000931,fork,372710,10,E,G,known,3
5153.000000000291,pin,379231,11,4,10,unknown,3
7733.000000000175,cap,387822,12,8,6,unknown,3
20869.000000000582,art,411791,13,11,7,unknown,3
10244.999999998952,sclupture,423408,14,2,1,unknown,3
2854.9999999995343,art,427400,15,2,3,unknown,3
2152.000000000058,art,430441,16,12,3,unknown,3
3447.0000000001164,art,436361,17,9,3,unknown,3
28579.99999999994,art,467049,18,3,5,unknown,3
6661.649999998161,bird,292949,1,practiceDistractor1,practiceTarget1,practice,32
6196.495000000112,plane,301012,2,practiceDistractor2,practiceTarget2,practice,32
4742.949999999837,fork,309533,3,F,G,known,32
3680.480000002659,dice,316326,4,C,H,known,32
4449.485000000976,butterfly,323387,5,B,K,known,32
3203.3750000009313,tree,329700,6,L,J,known,32
3348.7000000022817,pen,334413,7,L,D,known,32
3002.3849999997765,pen,340525,8,E,D,known,32
2740.69999999844,pen,344875,9,I,D,known,32
2839.6800000009825,apple,349328,10,D,A,known,32
21287.374999999884,pointy odd shaped structure,372475,11,9,8,unknown,32
22958.449999998265,long flat object with loop,397298,12,3,7,unknown,32
7668.525000000955,many sides,406353,13,1,11,unknown,32
10536.220000001776,squeeze handle,419505,14,6,10,unknown,32
16939.080000000075,two ended three prong object,438559,15,6,5,unknown,32
10798.490000001038,two ended three prong object,450726,16,12,5,unknown,32
19384.500000000116,two ended three prong object,473225,17,4,5,unknown,32
5493.5349999977625,glass vase,479828,18,5,2,unknown,32
23450,it has eyes,136652,1,practiceDistractor1,practiceTarget1,practice,4
7105,flies,145111,2,practiceDistractor2,practiceTarget2,practice,4
4645,you eat with it,154864,3,H,G,known,4
6730,you write with it,164697,4,E,D,known,4
4405,it flies,171207,5,J,K,known,4
5833,you put it on foot,177895,6,F,C,known,4
6309,it comes from the ground,185557,7,F,L,known,4
6025,it smells good,192686,8,I,L,known,4
5810,it is round,199599,9,B,L,known,4
4947,you eat it,205900,10,L,A,known,4
5477,its smaller,212481,11,5,6,unknown,4
7883,x shaped,221218,12,12,11,unknown,4
15197,looks like bread,238269,13,9,3,unknown,4
7330,odd shaped item,246453,14,8,7,unknown,4
12331,looks like a tool for the toilet,261887,15,8,10,unknown,4
5761,it is round,269504,16,4,10,unknown,4
5058,it has a stick,277164,17,2,10,unknown,4
6606,very oddly shaped,285124,18,10,1,unknown,4
4892.205000156537,bird,140490,1,practiceDistractor1,practiceTarget1,practice,23
9077.035000082105,plane,152674,2,practiceDistractor2,practiceTarget2,practice,23
6939.759999979287,ring,173091,3,B,F,known,23
5086.020000046119,tree,180034,4,K,J,known,23
5993.20499994792,Car,188634,5,G,I,known,23
4548.464999999851,pen,196290,6,H,D,known,23
4859.355000080541,apple,203754,7,H,A,known,23
5921.039999928325,apple,210530,8,E,A,known,23
6239.999999990687,apple,217874,9,C,A,known,23
5138.615000061691,flower,224873,10,A,L,known,23
12948.365000076592,broken,239426,11,4,8,unknown,23
14489.665000000969,hug,256522,12,2,7,unknown,23
29291.974999941885,hinge,286922,13,5,6,unknown,23
11689.329999964684,instrument,300218,14,3,9,unknown,23
5228.390000062063,art,306554,15,3,1,unknown,23
5752.025000052527,art,313162,16,12,1,unknown,23
8687.16000020504,art,322954,17,11,1,unknown,23
13566.39499985613,syringe,338627,18,1,10,unknown,23
6657.825000002049,bird,98630,1,practiceDistractor1,practiceTarget1,practice,40
12076.97500003269,airplane,112062,2,practiceDistractor2,practiceTarget2,practice,40
7398.764999990817,flower,125749,3,I,L,known,40
6917.499999981374,butterfly,133773,4,B,K,known,40
4807.704999984708,apple,140686,5,H,A,known,40
6830.995000025723,fork,149626,6,D,G,known,40
3110.510000027716,tree,154595,7,D,J,known,40
5195.310000039171,tree,161648,8,E,J,known,40
3998.005000001285,tree,167752,9,C,J,known,40
4582.800000032876,ring,175443,10,J,F,known,40
28294.070000003558,rock,205845,11,2,8,unknown,40
21300.95500004245,spinning top,228503,12,10,12,unknown,40
16495.950000011362,spiky dog toy,246105,13,7,4,unknown,40
5833.2550000050105,art,252793,14,6,1,unknown,40
24820.03999996232,spiky dumbell,280720,15,6,5,unknown,40
9890.35000000149,spiky dumbell,291965,16,3,5,unknown,40
9257.110000005923,spiky dumbell,302330,17,9,5,unknown,40
14730.655000021216,spiky rock,320170,18,5,11,unknown,40
34902,bird,92776,1,practiceDistractor1,practiceTarget1,practice,38
4378,plane,99012,2,practiceDistractor2,practiceTarget2,practice,38
2380,fork,103806,3,L,G,known,38
3812,chair with high back,109726,4,K,E,known,38
2328,dice,113212,5,F,H,known,38
1854,pen,115924,6,A,D,known,38
1904,cat,118936,7,A,B,known,38
1680,cat,122724,8,C,B,known,38
2012,cat,126344,9,J,B,known,38
2030,car,131482,10,B,I,known,38
17016,weird shapped fan thing with the bullseye looking air duct,151120,11,11,6,unknown,38
17130,weight shapped thing that looks like it has a bottle end and an arm throuigh it,170892,12,2,9,unknown,38
5110,symbol looking thing,177112,13,10,12,unknown,38
22134,looks like napkins folding over,200108,14,1,3,unknown,38
11222,looks like a shattered vase,213188,15,1,8,unknown,38
3672,shattered vase,218970,16,7,8,unknown,38
3918,shattered vase,224006,17,5,8,unknown,38
5738,three arm cactus thing,231104,18,8,4,unknown,38
2884.1299999985495,bird,480377,1,practiceDistractor1,practiceTarget1,practice,36
4915.3799999985495,plane,486906,2,practiceDistractor2,practiceTarget2,practice,36
3255.6750000003376,butterfly,493590,3,L,K,known,36
1646.3550000044052,cat,496599,4,D,B,known,36
1786.6999999969266,car,499996,5,C,I,known,36
1823.499999998603,ring,502932,6,E,F,known,36
1890.3449999997974,fork,506184,7,E,G,known,36
1446.220000005269,fork,508491,8,H,G,known,36
1262.8050000057556,fork,511366,9,A,G,known,36
2075.555000003078,tree,515055,10,G,J,known,36
7015.309999995225,container,522934,11,12,2,unknown,36
19992.734999999753,white and black object,543804,12,3,8,unknown,36
7884.465000002761,vertical art,552807,13,5,1,unknown,36
5048.985000001267,spiky toy,559220,14,9,4,unknown,36
10509.930000000168,dark fat jack,570844,15,9,11,unknown,36
3988.964999996824,dark fat jack,576197,16,10,11,unknown,36
4614.824999996927,dark fat jack,582718,17,7,11,unknown,36
22796.390000003157,object with concentric rings on it,606634,18,11,6,unknown,36
5158.114999998361,bird,170600,1,practiceDistractor1,practiceTarget1,practice,13
4597.504999954253,airplane,176551,2,practiceDistractor2,practiceTarget2,practice,13
4232.249999884516,butterfly,183708,3,E,K,known,13
2399.1650003008544,tree,188213,4,F,J,known,13
1990.5850002542138,cat,191558,5,C,B,known,13
2921.700000297278,pen,196333,6,L,D,known,13
1610.4000001214445,fork,199297,7,L,G,known,13
2445.3300000168383,fork,203096,8,I,G,known,13
1529.7249997965991,fork,206232,9,H,G,known,13
1891.764999832958,apple,210728,10,G,A,known,13
9271.59499982372,iceberg,223104,11,5,3,unknown,13
10553.94500028342,drum symbal,235512,12,6,12,unknown,13
11610.969999805093,goldfish sculpture,248728,13,9,1,unknown,13
9994.21999976039,loop thing,259576,14,8,7,unknown,13
11259.71999997273,black shape,272440,15,8,11,unknown,13
10495.949999894947,black shape with 4 bumps,286044,16,2,11,unknown,13
4264.144999906421,black shape with 4 bumps,291912,17,10,11,unknown,13
19366.665000095963,spiky 3 pronged object,312632,18,11,4,unknown,13
