rt,response,locator,time_elapsed,trial,distractor,target,type,id,file,occurrence,switch,negation
12507.07,car,NA,432891,3,I,12,unknown,1,/Users/dan/Projects/callab/tunkel/Negation2.0/raw_data/Experiment3/positionA/production-results/336OE47KI29I333Z8FAI49AO3MPVWW-3SKRO2GZ72GE8BRE2PCSXU448WR1KA.json,1,standard,FALSE
8831.05,tea cup,NA,444378,4,6,M,known,1,/Users/dan/Projects/callab/tunkel/Negation2.0/raw_data/Experiment3/positionA/production-results/336OE47KI29I333Z8FAI49AO3MPVWW-3SKRO2GZ72GE8BRE2PCSXU448WR1KA.json,1,standard,FALSE
6415.89,cup,NA,452178,5,5,M,known,1,/Users/dan/Projects/callab/tunkel/Negation2.0/raw_data/Experiment3/positionA/production-results/336OE47KI29I333Z8FAI49AO3MPVWW-3SKRO2GZ72GE8BRE2PCSXU448WR1KA.json,2,standard,FALSE
10682.56,cup,NA,464500,6,9,M,known,1,/Users/dan/Projects/callab/tunkel/Negation2.0/raw_data/Experiment3/positionA/production-results/336OE47KI29I333Z8FAI49AO3MPVWW-3SKRO2GZ72GE8BRE2PCSXU448WR1KA.json,3,standard,FALSE
13726.715,slicewr,NA,479891,7,A,10,unknown,1,/Users/dan/Projects/callab/tunkel/Negation2.0/raw_data/Experiment3/positionA/production-results/336OE47KI29I333Z8FAI49AO3MPVWW-3SKRO2GZ72GE8BRE2PCSXU448WR1KA.json,1,switch,FALSE
11296.12,bubules,NA,493813,8,1,G,known,1,/Users/dan/Projects/callab/tunkel/Negation2.0/raw_data/Experiment3/positionA/production-results/336OE47KI29I333Z8FAI49AO3MPVWW-3SKRO2GZ72GE8BRE2PCSXU448WR1KA.json,1,standard,FALSE
8357.11,mirror,NA,503555,9,K,15,unknown,1,/Users/dan/Projects/callab/tunkel/Negation2.0/raw_data/Experiment3/positionA/production-results/336OE47KI29I333Z8FAI49AO3MPVWW-3SKRO2GZ72GE8BRE2PCSXU448WR1KA.json,1,standard,FALSE
15498.49,wear,NA,522187,10,M,7,unknown,1,/Users/dan/Projects/callab/tunkel/Negation2.0/raw_data/Experiment3/positionA/production-results/336OE47KI29I333Z8FAI49AO3MPVWW-3SKRO2GZ72GE8BRE2PCSXU448WR1KA.json,1,standard,FALSE
4888.915,bench,NA,528444,11,11,E,known,1,/Users/dan/Projects/callab/tunkel/Negation2.0/raw_data/Experiment3/positionA/production-results/336OE47KI29I333Z8FAI49AO3MPVWW-3SKRO2GZ72GE8BRE2PCSXU448WR1KA.json,1,standard,FALSE
13335.5,plastic,NA,542914,12,B,8,unknown,1,/Users/dan/Projects/callab/tunkel/Negation2.0/raw_data/Experiment3/positionA/production-results/336OE47KI29I333Z8FAI49AO3MPVWW-3SKRO2GZ72GE8BRE2PCSXU448WR1KA.json,1,standard,FALSE
7427.105,plastic,NA,553474,13,C,8,unknown,1,/Users/dan/Projects/callab/tunkel/Negation2.0/raw_data/Experiment3/positionA/production-results/336OE47KI29I333Z8FAI49AO3MPVWW-3SKRO2GZ72GE8BRE2PCSXU448WR1KA.json,2,standard,FALSE
8698.075,dice,NA,563060,14,H,8,unknown,1,/Users/dan/Projects/callab/tunkel/Negation2.0/raw_data/Experiment3/positionA/production-results/336OE47KI29I333Z8FAI49AO3MPVWW-3SKRO2GZ72GE8BRE2PCSXU448WR1KA.json,3,standard,FALSE
4123.23,pen,NA,568043,15,3,D,known,1,/Users/dan/Projects/callab/tunkel/Negation2.0/raw_data/Experiment3/positionA/production-results/336OE47KI29I333Z8FAI49AO3MPVWW-3SKRO2GZ72GE8BRE2PCSXU448WR1KA.json,1,switch,FALSE
12604.465,watercane,NA,582523,16,F,2,unknown,1,/Users/dan/Projects/callab/tunkel/Negation2.0/raw_data/Experiment3/positionA/production-results/336OE47KI29I333Z8FAI49AO3MPVWW-3SKRO2GZ72GE8BRE2PCSXU448WR1KA.json,1,standard,FALSE
4352.565,tree,NA,588515,17,4,J,known,1,/Users/dan/Projects/callab/tunkel/Negation2.0/raw_data/Experiment3/positionA/production-results/336OE47KI29I333Z8FAI49AO3MPVWW-3SKRO2GZ72GE8BRE2PCSXU448WR1KA.json,1,standard,FALSE
7300.615,sunflower,NA,597683,18,8,L,known,1,/Users/dan/Projects/callab/tunkel/Negation2.0/raw_data/Experiment3/positionA/production-results/336OE47KI29I333Z8FAI49AO3MPVWW-3SKRO2GZ72GE8BRE2PCSXU448WR1KA.json,1,standard,FALSE
4186.415,sunflower,NA,93974,3,10,L,known,2,/Users/dan/Projects/callab/tunkel/Negation2.0/raw_data/Experiment3/positionB/production-results/3OID399FXGWUY0HIR50OUZIH8CWDFI-3XXU1SWE8NK8P9XAUFV3PBIYYSR0AR.json,1,standard,FALSE
10018.565,looks like a blunt jack,NA,105350,4,A,11,unknown,2,/Users/dan/Projects/callab/tunkel/Negation2.0/raw_data/Experiment3/positionB/production-results/3OID399FXGWUY0HIR50OUZIH8CWDFI-3XXU1SWE8NK8P9XAUFV3PBIYYSR0AR.json,1,standard,FALSE
4272.025,jack,NA,110978,5,G,11,unknown,2,/Users/dan/Projects/callab/tunkel/Negation2.0/raw_data/Experiment3/positionB/production-results/3OID399FXGWUY0HIR50OUZIH8CWDFI-3XXU1SWE8NK8P9XAUFV3PBIYYSR0AR.json,2,standard,FALSE
27003.66,starburst shaped jack thing,NA,140088,6,F,11,unknown,2,/Users/dan/Projects/callab/tunkel/Negation2.0/raw_data/Experiment3/positionB/production-results/3OID399FXGWUY0HIR50OUZIH8CWDFI-3XXU1SWE8NK8P9XAUFV3PBIYYSR0AR.json,3,standard,FALSE
3721.915,shoe,NA,145414,7,16,C,known,2,/Users/dan/Projects/callab/tunkel/Negation2.0/raw_data/Experiment3/positionB/production-results/3OID399FXGWUY0HIR50OUZIH8CWDFI-3XXU1SWE8NK8P9XAUFV3PBIYYSR0AR.json,1,switch,FALSE
23511.12,looks like part of a sprayer,NA,171532,8,D,6,unknown,2,/Users/dan/Projects/callab/tunkel/Negation2.0/raw_data/Experiment3/positionB/production-results/3OID399FXGWUY0HIR50OUZIH8CWDFI-3XXU1SWE8NK8P9XAUFV3PBIYYSR0AR.json,1,standard,FALSE
5967.01,butterfly,NA,179355,9,12,K,known,2,/Users/dan/Projects/callab/tunkel/Negation2.0/raw_data/Experiment3/positionB/production-results/3OID399FXGWUY0HIR50OUZIH8CWDFI-3XXU1SWE8NK8P9XAUFV3PBIYYSR0AR.json,1,standard,FALSE
3339.895,chair,NA,184551,10,11,E,known,2,/Users/dan/Projects/callab/tunkel/Negation2.0/raw_data/Experiment3/positionB/production-results/3OID399FXGWUY0HIR50OUZIH8CWDFI-3XXU1SWE8NK8P9XAUFV3PBIYYSR0AR.json,1,standard,FALSE
5641.51,dog toy,NA,191297,11,M,1,unknown,2,/Users/dan/Projects/callab/tunkel/Negation2.0/raw_data/Experiment3/positionB/production-results/3OID399FXGWUY0HIR50OUZIH8CWDFI-3XXU1SWE8NK8P9XAUFV3PBIYYSR0AR.json,1,standard,FALSE
3461.44,crab,NA,197363,12,9,N,known,2,/Users/dan/Projects/callab/tunkel/Negation2.0/raw_data/Experiment3/positionB/production-results/3OID399FXGWUY0HIR50OUZIH8CWDFI-3XXU1SWE8NK8P9XAUFV3PBIYYSR0AR.json,1,standard,FALSE
4409.82,crab,NA,202629,13,7,N,known,2,/Users/dan/Projects/callab/tunkel/Negation2.0/raw_data/Experiment3/positionB/production-results/3OID399FXGWUY0HIR50OUZIH8CWDFI-3XXU1SWE8NK8P9XAUFV3PBIYYSR0AR.json,2,standard,FALSE
3097.96,crab,NA,207583,14,3,N,known,2,/Users/dan/Projects/callab/tunkel/Negation2.0/raw_data/Experiment3/positionB/production-results/3OID399FXGWUY0HIR50OUZIH8CWDFI-3XXU1SWE8NK8P9XAUFV3PBIYYSR0AR.json,3,standard,FALSE
11813.475,barbell shaped object,NA,220253,15,J,5,unknown,2,/Users/dan/Projects/callab/tunkel/Negation2.0/raw_data/Experiment3/positionB/production-results/3OID399FXGWUY0HIR50OUZIH8CWDFI-3XXU1SWE8NK8P9XAUFV3PBIYYSR0AR.json,1,switch,FALSE
3319.3,cat,NA,224929,16,4,B,known,2,/Users/dan/Projects/callab/tunkel/Negation2.0/raw_data/Experiment3/positionB/production-results/3OID399FXGWUY0HIR50OUZIH8CWDFI-3XXU1SWE8NK8P9XAUFV3PBIYYSR0AR.json,1,standard,FALSE
11569.02,s shaped blocks,NA,238355,17,I,15,unknown,2,/Users/dan/Projects/callab/tunkel/Negation2.0/raw_data/Experiment3/positionB/production-results/3OID399FXGWUY0HIR50OUZIH8CWDFI-3XXU1SWE8NK8P9XAUFV3PBIYYSR0AR.json,1,standard,FALSE
8851.67,flower shaped plastic,NA,248312,18,N,8,unknown,2,/Users/dan/Projects/callab/tunkel/Negation2.0/raw_data/Experiment3/positionB/production-results/3OID399FXGWUY0HIR50OUZIH8CWDFI-3XXU1SWE8NK8P9XAUFV3PBIYYSR0AR.json,1,standard,FALSE
2254,pen,NA,390395,3,5,D,known,3,/Users/dan/Projects/callab/tunkel/Negation2.0/raw_data/Experiment3/positionB/production-results/3WGZLY9VCHBLJL7VJRUIK71VL8J8DW-3KB8R4ZV1FWAJNDNEVK25EPKNR0GB4.json,1,standard,FALSE
39415,lego,NA,432919,4,F,15,unknown,3,/Users/dan/Projects/callab/tunkel/Negation2.0/raw_data/Experiment3/positionB/production-results/3WGZLY9VCHBLJL7VJRUIK71VL8J8DW-3KB8R4ZV1FWAJNDNEVK25EPKNR0GB4.json,1,standard,FALSE
2196,lego,NA,435982,5,I,15,unknown,3,/Users/dan/Projects/callab/tunkel/Negation2.0/raw_data/Experiment3/positionB/production-results/3WGZLY9VCHBLJL7VJRUIK71VL8J8DW-3KB8R4ZV1FWAJNDNEVK25EPKNR0GB4.json,2,standard,FALSE
1488,lego,NA,438832,6,E,15,unknown,3,/Users/dan/Projects/callab/tunkel/Negation2.0/raw_data/Experiment3/positionB/production-results/3WGZLY9VCHBLJL7VJRUIK71VL8J8DW-3KB8R4ZV1FWAJNDNEVK25EPKNR0GB4.json,3,standard,FALSE
1797,flower,NA,441736,7,10,L,known,3,/Users/dan/Projects/callab/tunkel/Negation2.0/raw_data/Experiment3/positionB/production-results/3WGZLY9VCHBLJL7VJRUIK71VL8J8DW-3KB8R4ZV1FWAJNDNEVK25EPKNR0GB4.json,1,switch,FALSE
3752,white,NA,447348,8,C,3,unknown,3,/Users/dan/Projects/callab/tunkel/Negation2.0/raw_data/Experiment3/positionB/production-results/3WGZLY9VCHBLJL7VJRUIK71VL8J8DW-3KB8R4ZV1FWAJNDNEVK25EPKNR0GB4.json,1,standard,FALSE
2281,cip,NA,451238,9,4,M,known,3,/Users/dan/Projects/callab/tunkel/Negation2.0/raw_data/Experiment3/positionB/production-results/3WGZLY9VCHBLJL7VJRUIK71VL8J8DW-3KB8R4ZV1FWAJNDNEVK25EPKNR0GB4.json,1,standard,FALSE
1657,die,NA,454011,10,15,H,known,3,/Users/dan/Projects/callab/tunkel/Negation2.0/raw_data/Experiment3/positionB/production-results/3WGZLY9VCHBLJL7VJRUIK71VL8J8DW-3KB8R4ZV1FWAJNDNEVK25EPKNR0GB4.json,1,standard,FALSE
3874,blim,NA,460996,11,A,16,unknown,3,/Users/dan/Projects/callab/tunkel/Negation2.0/raw_data/Experiment3/positionB/production-results/3WGZLY9VCHBLJL7VJRUIK71VL8J8DW-3KB8R4ZV1FWAJNDNEVK25EPKNR0GB4.json,1,standard,FALSE
1834,fork,NA,464440,12,6,G,known,3,/Users/dan/Projects/callab/tunkel/Negation2.0/raw_data/Experiment3/positionB/production-results/3WGZLY9VCHBLJL7VJRUIK71VL8J8DW-3KB8R4ZV1FWAJNDNEVK25EPKNR0GB4.json,1,standard,FALSE
1341,fork,NA,467646,13,12,G,known,3,/Users/dan/Projects/callab/tunkel/Negation2.0/raw_data/Experiment3/positionB/production-results/3WGZLY9VCHBLJL7VJRUIK71VL8J8DW-3KB8R4ZV1FWAJNDNEVK25EPKNR0GB4.json,2,standard,FALSE
1604,fork,NA,471360,14,11,G,known,3,/Users/dan/Projects/callab/tunkel/Negation2.0/raw_data/Experiment3/positionB/production-results/3WGZLY9VCHBLJL7VJRUIK71VL8J8DW-3KB8R4ZV1FWAJNDNEVK25EPKNR0GB4.json,3,standard,FALSE
2356,ball,NA,476828,15,B,1,unknown,3,/Users/dan/Projects/callab/tunkel/Negation2.0/raw_data/Experiment3/positionB/production-results/3WGZLY9VCHBLJL7VJRUIK71VL8J8DW-3KB8R4ZV1FWAJNDNEVK25EPKNR0GB4.json,1,switch,FALSE
2349,crab,NA,481790,16,2,N,known,3,/Users/dan/Projects/callab/tunkel/Negation2.0/raw_data/Experiment3/positionB/production-results/3WGZLY9VCHBLJL7VJRUIK71VL8J8DW-3KB8R4ZV1FWAJNDNEVK25EPKNR0GB4.json,1,standard,FALSE
3182,thing,NA,486588,17,K,7,unknown,3,/Users/dan/Projects/callab/tunkel/Negation2.0/raw_data/Experiment3/positionB/production-results/3WGZLY9VCHBLJL7VJRUIK71VL8J8DW-3KB8R4ZV1FWAJNDNEVK25EPKNR0GB4.json,1,standard,FALSE
3210,thing,NA,490662,18,G,8,unknown,3,/Users/dan/Projects/callab/tunkel/Negation2.0/raw_data/Experiment3/positionB/production-results/3WGZLY9VCHBLJL7VJRUIK71VL8J8DW-3KB8R4ZV1FWAJNDNEVK25EPKNR0GB4.json,1,standard,FALSE
15567,junk,NA,84746,3,M,8,unknown,4,/Users/dan/Projects/callab/tunkel/Negation2.0/raw_data/Experiment3/positionA/production-results/37J05LC5AX8A323EAVR99XA91JDDJL-3N1FSUEFL6PNM4INXQ97RFGH0744DD.json,1,standard,FALSE
3022,tree,NA,89623,4,9,J,known,4,/Users/dan/Projects/callab/tunkel/Negation2.0/raw_data/Experiment3/positionA/production-results/37J05LC5AX8A323EAVR99XA91JDDJL-3N1FSUEFL6PNM4INXQ97RFGH0744DD.json,1,standard,FALSE
6178,tree,NA,96656,5,10,J,known,4,/Users/dan/Projects/callab/tunkel/Negation2.0/raw_data/Experiment3/positionA/production-results/37J05LC5AX8A323EAVR99XA91JDDJL-3N1FSUEFL6PNM4INXQ97RFGH0744DD.json,2,standard,FALSE
2369,tree,NA,100879,6,1,J,known,4,/Users/dan/Projects/callab/tunkel/Negation2.0/raw_data/Experiment3/positionA/production-results/37J05LC5AX8A323EAVR99XA91JDDJL-3N1FSUEFL6PNM4INXQ97RFGH0744DD.json,3,standard,FALSE
9897,blocks,NA,112632,7,L,15,unknown,4,/Users/dan/Projects/callab/tunkel/Negation2.0/raw_data/Experiment3/positionA/production-results/37J05LC5AX8A323EAVR99XA91JDDJL-3N1FSUEFL6PNM4INXQ97RFGH0744DD.json,1,switch,FALSE
7102,moth,NA,122838,8,4,K,known,4,/Users/dan/Projects/callab/tunkel/Negation2.0/raw_data/Experiment3/positionA/production-results/37J05LC5AX8A323EAVR99XA91JDDJL-3N1FSUEFL6PNM4INXQ97RFGH0744DD.json,1,standard,FALSE
12558,shape,NA,136750,9,F,5,unknown,4,/Users/dan/Projects/callab/tunkel/Negation2.0/raw_data/Experiment3/positionA/production-results/37J05LC5AX8A323EAVR99XA91JDDJL-3N1FSUEFL6PNM4INXQ97RFGH0744DD.json,1,standard,FALSE
8833,plastic,NA,148187,10,J,6,unknown,4,/Users/dan/Projects/callab/tunkel/Negation2.0/raw_data/Experiment3/positionA/production-results/37J05LC5AX8A323EAVR99XA91JDDJL-3N1FSUEFL6PNM4INXQ97RFGH0744DD.json,1,standard,FALSE
4489,pen,NA,154032,11,16,D,known,4,/Users/dan/Projects/callab/tunkel/Negation2.0/raw_data/Experiment3/positionA/production-results/37J05LC5AX8A323EAVR99XA91JDDJL-3N1FSUEFL6PNM4INXQ97RFGH0744DD.json,1,standard,FALSE
5918,art,NA,161053,12,I,3,unknown,4,/Users/dan/Projects/callab/tunkel/Negation2.0/raw_data/Experiment3/positionA/production-results/37J05LC5AX8A323EAVR99XA91JDDJL-3N1FSUEFL6PNM4INXQ97RFGH0744DD.json,1,standard,FALSE
3121,art,NA,165027,13,B,3,unknown,4,/Users/dan/Projects/callab/tunkel/Negation2.0/raw_data/Experiment3/positionA/production-results/37J05LC5AX8A323EAVR99XA91JDDJL-3N1FSUEFL6PNM4INXQ97RFGH0744DD.json,2,standard,FALSE
2122,art,NA,169003,14,C,3,unknown,4,/Users/dan/Projects/callab/tunkel/Negation2.0/raw_data/Experiment3/positionA/production-results/37J05LC5AX8A323EAVR99XA91JDDJL-3N1FSUEFL6PNM4INXQ97RFGH0744DD.json,3,standard,FALSE
4092,dice,NA,174449,15,7,H,known,4,/Users/dan/Projects/callab/tunkel/Negation2.0/raw_data/Experiment3/positionA/production-results/37J05LC5AX8A323EAVR99XA91JDDJL-3N1FSUEFL6PNM4INXQ97RFGH0744DD.json,1,switch,FALSE
5012,glass,NA,180316,16,E,2,unknown,4,/Users/dan/Projects/callab/tunkel/Negation2.0/raw_data/Experiment3/positionA/production-results/37J05LC5AX8A323EAVR99XA91JDDJL-3N1FSUEFL6PNM4INXQ97RFGH0744DD.json,1,standard,FALSE
3770,crab,NA,184941,17,11,N,known,4,/Users/dan/Projects/callab/tunkel/Negation2.0/raw_data/Experiment3/positionA/production-results/37J05LC5AX8A323EAVR99XA91JDDJL-3N1FSUEFL6PNM4INXQ97RFGH0744DD.json,1,standard,FALSE
4198,apple,NA,191241,18,3,A,known,4,/Users/dan/Projects/callab/tunkel/Negation2.0/raw_data/Experiment3/positionA/production-results/37J05LC5AX8A323EAVR99XA91JDDJL-3N1FSUEFL6PNM4INXQ97RFGH0744DD.json,1,standard,FALSE
8668.87,round,NA,844256,3,E,16,unknown,5,/Users/dan/Projects/callab/tunkel/Negation2.0/raw_data/Experiment3/positionA/production-results/336OE47KI29I333Z8FAI49AO3MPVWW-3AMYWKA6YCBS5ODQ6NG2Z7CU0CH6OX.json,1,standard,FALSE
2056.07,cat,NA,847167,4,5,B,known,5,/Users/dan/Projects/callab/tunkel/Negation2.0/raw_data/Experiment3/positionA/production-results/336OE47KI29I333Z8FAI49AO3MPVWW-3AMYWKA6YCBS5ODQ6NG2Z7CU0CH6OX.json,1,standard,FALSE
2494.365,cat,NA,852267,5,8,B,known,5,/Users/dan/Projects/callab/tunkel/Negation2.0/raw_data/Experiment3/positionA/production-results/336OE47KI29I333Z8FAI49AO3MPVWW-3AMYWKA6YCBS5ODQ6NG2Z7CU0CH6OX.json,2,standard,FALSE
1893.785,cat,NA,857265,6,10,B,known,5,/Users/dan/Projects/callab/tunkel/Negation2.0/raw_data/Experiment3/positionA/production-results/336OE47KI29I333Z8FAI49AO3MPVWW-3AMYWKA6YCBS5ODQ6NG2Z7CU0CH6OX.json,3,standard,FALSE
5389.145,blocks,NA,864009,7,H,15,unknown,5,/Users/dan/Projects/callab/tunkel/Negation2.0/raw_data/Experiment3/positionA/production-results/336OE47KI29I333Z8FAI49AO3MPVWW-3AMYWKA6YCBS5ODQ6NG2Z7CU0CH6OX.json,1,switch,FALSE
3421.955,shoe,NA,868535,8,3,C,known,5,/Users/dan/Projects/callab/tunkel/Negation2.0/raw_data/Experiment3/positionA/production-results/336OE47KI29I333Z8FAI49AO3MPVWW-3AMYWKA6YCBS5ODQ6NG2Z7CU0CH6OX.json,1,standard,FALSE
3640.095,top,NA,874029,9,I,12,unknown,5,/Users/dan/Projects/callab/tunkel/Negation2.0/raw_data/Experiment3/positionA/production-results/336OE47KI29I333Z8FAI49AO3MPVWW-3AMYWKA6YCBS5ODQ6NG2Z7CU0CH6OX.json,1,standard,FALSE
9528.025,not pet,NA,885044,10,B,6,unknown,5,/Users/dan/Projects/callab/tunkel/Negation2.0/raw_data/Experiment3/positionA/production-results/336OE47KI29I333Z8FAI49AO3MPVWW-3AMYWKA6YCBS5ODQ6NG2Z7CU0CH6OX.json,1,standard,TRUE
3616,ring,NA,889515,11,11,F,known,5,/Users/dan/Projects/callab/tunkel/Negation2.0/raw_data/Experiment3/positionA/production-results/336OE47KI29I333Z8FAI49AO3MPVWW-3AMYWKA6YCBS5ODQ6NG2Z7CU0CH6OX.json,1,standard,FALSE
3949.29,balls,NA,895569,12,D,1,unknown,5,/Users/dan/Projects/callab/tunkel/Negation2.0/raw_data/Experiment3/positionA/production-results/336OE47KI29I333Z8FAI49AO3MPVWW-3AMYWKA6YCBS5ODQ6NG2Z7CU0CH6OX.json,1,standard,FALSE
2710.545,balls,NA,899634,13,M,1,unknown,5,/Users/dan/Projects/callab/tunkel/Negation2.0/raw_data/Experiment3/positionA/production-results/336OE47KI29I333Z8FAI49AO3MPVWW-3AMYWKA6YCBS5ODQ6NG2Z7CU0CH6OX.json,2,standard,FALSE
2994.4,balls,NA,903733,14,J,1,unknown,5,/Users/dan/Projects/callab/tunkel/Negation2.0/raw_data/Experiment3/positionA/production-results/336OE47KI29I333Z8FAI49AO3MPVWW-3AMYWKA6YCBS5ODQ6NG2Z7CU0CH6OX.json,3,standard,FALSE
123345.58,flower,NA,1028684,15,4,L,known,5,/Users/dan/Projects/callab/tunkel/Negation2.0/raw_data/Experiment3/positionA/production-results/336OE47KI29I333Z8FAI49AO3MPVWW-3AMYWKA6YCBS5ODQ6NG2Z7CU0CH6OX.json,1,switch,FALSE
4572.055,art,NA,1036088,16,G,7,unknown,5,/Users/dan/Projects/callab/tunkel/Negation2.0/raw_data/Experiment3/positionA/production-results/336OE47KI29I333Z8FAI49AO3MPVWW-3AMYWKA6YCBS5ODQ6NG2Z7CU0CH6OX.json,1,standard,FALSE
3434.945,butterfly,NA,1040878,17,2,K,known,5,/Users/dan/Projects/callab/tunkel/Negation2.0/raw_data/Experiment3/positionA/production-results/336OE47KI29I333Z8FAI49AO3MPVWW-3AMYWKA6YCBS5ODQ6NG2Z7CU0CH6OX.json,1,standard,FALSE
3076.69,crab,NA,1045558,18,1,N,known,5,/Users/dan/Projects/callab/tunkel/Negation2.0/raw_data/Experiment3/positionA/production-results/336OE47KI29I333Z8FAI49AO3MPVWW-3AMYWKA6YCBS5ODQ6NG2Z7CU0CH6OX.json,1,standard,FALSE
7727.235,dice,NA,123317,3,11,H,known,6,/Users/dan/Projects/callab/tunkel/Negation2.0/raw_data/Experiment3/positionB/production-results/3WGZLY9VCHBLJL7VJRUIK71VL8J8DW-3RU7GD8VPPIFDMNOS0WKPCDCS6KSPW.json,1,standard,FALSE
6489.825,blimp,NA,130669,4,G,16,unknown,6,/Users/dan/Projects/callab/tunkel/Negation2.0/raw_data/Experiment3/positionB/production-results/3WGZLY9VCHBLJL7VJRUIK71VL8J8DW-3RU7GD8VPPIFDMNOS0WKPCDCS6KSPW.json,1,standard,FALSE
30395.03,,NA,164179,5,E,16,unknown,6,/Users/dan/Projects/callab/tunkel/Negation2.0/raw_data/Experiment3/positionB/production-results/3WGZLY9VCHBLJL7VJRUIK71VL8J8DW-3RU7GD8VPPIFDMNOS0WKPCDCS6KSPW.json,2,standard,FALSE
6542.685,blimp,NA,171842,6,N,16,unknown,6,/Users/dan/Projects/callab/tunkel/Negation2.0/raw_data/Experiment3/positionB/production-results/3WGZLY9VCHBLJL7VJRUIK71VL8J8DW-3RU7GD8VPPIFDMNOS0WKPCDCS6KSPW.json,3,standard,FALSE
3427.79,shoe,NA,176883,7,1,C,known,6,/Users/dan/Projects/callab/tunkel/Negation2.0/raw_data/Experiment3/positionB/production-results/3WGZLY9VCHBLJL7VJRUIK71VL8J8DW-3RU7GD8VPPIFDMNOS0WKPCDCS6KSPW.json,1,switch,FALSE
14091.93,ball,NA,192586,8,K,8,unknown,6,/Users/dan/Projects/callab/tunkel/Negation2.0/raw_data/Experiment3/positionB/production-results/3WGZLY9VCHBLJL7VJRUIK71VL8J8DW-3RU7GD8VPPIFDMNOS0WKPCDCS6KSPW.json,1,standard,FALSE
3927.44,pen,NA,197377,9,6,D,known,6,/Users/dan/Projects/callab/tunkel/Negation2.0/raw_data/Experiment3/positionB/production-results/3WGZLY9VCHBLJL7VJRUIK71VL8J8DW-3RU7GD8VPPIFDMNOS0WKPCDCS6KSPW.json,1,standard,FALSE
4084.595,cup,NA,203331,10,16,M,known,6,/Users/dan/Projects/callab/tunkel/Negation2.0/raw_data/Experiment3/positionB/production-results/3WGZLY9VCHBLJL7VJRUIK71VL8J8DW-3RU7GD8VPPIFDMNOS0WKPCDCS6KSPW.json,1,standard,FALSE
7208.045,balloon,NA,211650,11,I,10,unknown,6,/Users/dan/Projects/callab/tunkel/Negation2.0/raw_data/Experiment3/positionB/production-results/3WGZLY9VCHBLJL7VJRUIK71VL8J8DW-3RU7GD8VPPIFDMNOS0WKPCDCS6KSPW.json,1,standard,FALSE
4857.305,cat,NA,218618,12,5,B,known,6,/Users/dan/Projects/callab/tunkel/Negation2.0/raw_data/Experiment3/positionB/production-results/3WGZLY9VCHBLJL7VJRUIK71VL8J8DW-3RU7GD8VPPIFDMNOS0WKPCDCS6KSPW.json,1,standard,FALSE
2664.71,cat,NA,222899,13,3,B,known,6,/Users/dan/Projects/callab/tunkel/Negation2.0/raw_data/Experiment3/positionB/production-results/3WGZLY9VCHBLJL7VJRUIK71VL8J8DW-3RU7GD8VPPIFDMNOS0WKPCDCS6KSPW.json,2,standard,FALSE
2505.9,cat,NA,226266,14,12,B,known,6,/Users/dan/Projects/callab/tunkel/Negation2.0/raw_data/Experiment3/positionB/production-results/3WGZLY9VCHBLJL7VJRUIK71VL8J8DW-3RU7GD8VPPIFDMNOS0WKPCDCS6KSPW.json,3,standard,FALSE
24029.425,four with donut,NA,251408,15,L,4,unknown,6,/Users/dan/Projects/callab/tunkel/Negation2.0/raw_data/Experiment3/positionB/production-results/3WGZLY9VCHBLJL7VJRUIK71VL8J8DW-3RU7GD8VPPIFDMNOS0WKPCDCS6KSPW.json,1,switch,FALSE
4315.595,ring,NA,258337,16,2,F,known,6,/Users/dan/Projects/callab/tunkel/Negation2.0/raw_data/Experiment3/positionB/production-results/3WGZLY9VCHBLJL7VJRUIK71VL8J8DW-3RU7GD8VPPIFDMNOS0WKPCDCS6KSPW.json,1,standard,FALSE
13691.385,wings up touching,NA,273640,17,A,7,unknown,6,/Users/dan/Projects/callab/tunkel/Negation2.0/raw_data/Experiment3/positionB/production-results/3WGZLY9VCHBLJL7VJRUIK71VL8J8DW-3RU7GD8VPPIFDMNOS0WKPCDCS6KSPW.json,1,standard,FALSE
6854.02,stacked blocks,NA,283607,18,B,15,unknown,6,/Users/dan/Projects/callab/tunkel/Negation2.0/raw_data/Experiment3/positionB/production-results/3WGZLY9VCHBLJL7VJRUIK71VL8J8DW-3RU7GD8VPPIFDMNOS0WKPCDCS6KSPW.json,1,standard,FALSE
1543.395,car,NA,71659,3,7,I,known,7,/Users/dan/Projects/callab/tunkel/Negation2.0/raw_data/Experiment3/positionB/production-results/3WGZLY9VCHBLJL7VJRUIK71VL8J8DW-3G5F9DBFOQM3SX643ITKRQVS5JTVHO.json,1,standard,FALSE
8073.845,feather thing,NA,81099,4,C,4,unknown,7,/Users/dan/Projects/callab/tunkel/Negation2.0/raw_data/Experiment3/positionB/production-results/3WGZLY9VCHBLJL7VJRUIK71VL8J8DW-3G5F9DBFOQM3SX643ITKRQVS5JTVHO.json,1,standard,FALSE
4285.98,feather thing,NA,86502,5,H,4,unknown,7,/Users/dan/Projects/callab/tunkel/Negation2.0/raw_data/Experiment3/positionB/production-results/3WGZLY9VCHBLJL7VJRUIK71VL8J8DW-3G5F9DBFOQM3SX643ITKRQVS5JTVHO.json,2,standard,FALSE
5103.49,feather thing,NA,94221,6,J,4,unknown,7,/Users/dan/Projects/callab/tunkel/Negation2.0/raw_data/Experiment3/positionB/production-results/3WGZLY9VCHBLJL7VJRUIK71VL8J8DW-3G5F9DBFOQM3SX643ITKRQVS5JTVHO.json,3,standard,FALSE
1818.105,fork,NA,99147,7,5,G,known,7,/Users/dan/Projects/callab/tunkel/Negation2.0/raw_data/Experiment3/positionB/production-results/3WGZLY9VCHBLJL7VJRUIK71VL8J8DW-3G5F9DBFOQM3SX643ITKRQVS5JTVHO.json,1,switch,FALSE
8240.1,clam,NA,110009,8,K,12,unknown,7,/Users/dan/Projects/callab/tunkel/Negation2.0/raw_data/Experiment3/positionB/production-results/3WGZLY9VCHBLJL7VJRUIK71VL8J8DW-3G5F9DBFOQM3SX643ITKRQVS5JTVHO.json,1,standard,FALSE
2686.575,chair,NA,114305,9,2,E,known,7,/Users/dan/Projects/callab/tunkel/Negation2.0/raw_data/Experiment3/positionB/production-results/3WGZLY9VCHBLJL7VJRUIK71VL8J8DW-3G5F9DBFOQM3SX643ITKRQVS5JTVHO.json,1,standard,FALSE
2322.035,apple,NA,119748,10,4,A,known,7,/Users/dan/Projects/callab/tunkel/Negation2.0/raw_data/Experiment3/positionB/production-results/3WGZLY9VCHBLJL7VJRUIK71VL8J8DW-3G5F9DBFOQM3SX643ITKRQVS5JTVHO.json,1,standard,FALSE
4865.18,spiky,NA,126473,11,F,1,unknown,7,/Users/dan/Projects/callab/tunkel/Negation2.0/raw_data/Experiment3/positionB/production-results/3WGZLY9VCHBLJL7VJRUIK71VL8J8DW-3G5F9DBFOQM3SX643ITKRQVS5JTVHO.json,1,standard,FALSE
4335.215,cat,NA,133924,12,15,B,known,7,/Users/dan/Projects/callab/tunkel/Negation2.0/raw_data/Experiment3/positionB/production-results/3WGZLY9VCHBLJL7VJRUIK71VL8J8DW-3G5F9DBFOQM3SX643ITKRQVS5JTVHO.json,1,standard,FALSE
1279.52,cat,NA,137813,13,6,B,known,7,/Users/dan/Projects/callab/tunkel/Negation2.0/raw_data/Experiment3/positionB/production-results/3WGZLY9VCHBLJL7VJRUIK71VL8J8DW-3G5F9DBFOQM3SX643ITKRQVS5JTVHO.json,2,standard,FALSE
1376.05,cat,NA,140569,14,9,B,known,7,/Users/dan/Projects/callab/tunkel/Negation2.0/raw_data/Experiment3/positionB/production-results/3WGZLY9VCHBLJL7VJRUIK71VL8J8DW-3G5F9DBFOQM3SX643ITKRQVS5JTVHO.json,3,standard,FALSE
5017.875,ball,NA,148704,15,N,8,unknown,7,/Users/dan/Projects/callab/tunkel/Negation2.0/raw_data/Experiment3/positionB/production-results/3WGZLY9VCHBLJL7VJRUIK71VL8J8DW-3G5F9DBFOQM3SX643ITKRQVS5JTVHO.json,1,switch,FALSE
2854.795,sunflower,NA,154171,16,11,L,known,7,/Users/dan/Projects/callab/tunkel/Negation2.0/raw_data/Experiment3/positionB/production-results/3WGZLY9VCHBLJL7VJRUIK71VL8J8DW-3G5F9DBFOQM3SX643ITKRQVS5JTVHO.json,1,standard,FALSE
5819.27,not pen,NA,161103,17,D,3,unknown,7,/Users/dan/Projects/callab/tunkel/Negation2.0/raw_data/Experiment3/positionB/production-results/3WGZLY9VCHBLJL7VJRUIK71VL8J8DW-3G5F9DBFOQM3SX643ITKRQVS5JTVHO.json,1,standard,TRUE
5444.43,baster,NA,169661,18,B,10,unknown,7,/Users/dan/Projects/callab/tunkel/Negation2.0/raw_data/Experiment3/positionB/production-results/3WGZLY9VCHBLJL7VJRUIK71VL8J8DW-3G5F9DBFOQM3SX643ITKRQVS5JTVHO.json,1,standard,FALSE
3308.72,fork,NA,570836,3,11,G,known,8,/Users/dan/Projects/callab/tunkel/Negation2.0/raw_data/Experiment3/positionB/production-results/3OID399FXGWUY0HIR50OUZIH8CWDFI-3K5TEWLKGW03OSHO90B5R2W75W8VIH.json,1,standard,FALSE
13799.41,rock,NA,586742,4,M,3,unknown,8,/Users/dan/Projects/callab/tunkel/Negation2.0/raw_data/Experiment3/positionB/production-results/3OID399FXGWUY0HIR50OUZIH8CWDFI-3K5TEWLKGW03OSHO90B5R2W75W8VIH.json,1,standard,FALSE
6967.975,bread,NA,595815,5,F,3,unknown,8,/Users/dan/Projects/callab/tunkel/Negation2.0/raw_data/Experiment3/positionB/production-results/3OID399FXGWUY0HIR50OUZIH8CWDFI-3K5TEWLKGW03OSHO90B5R2W75W8VIH.json,2,standard,FALSE
5042.925,hat,NA,603964,6,A,3,unknown,8,/Users/dan/Projects/callab/tunkel/Negation2.0/raw_data/Experiment3/positionB/production-results/3OID399FXGWUY0HIR50OUZIH8CWDFI-3K5TEWLKGW03OSHO90B5R2W75W8VIH.json,3,standard,FALSE
3354.545,tree,NA,608424,7,5,J,known,8,/Users/dan/Projects/callab/tunkel/Negation2.0/raw_data/Experiment3/positionB/production-results/3OID399FXGWUY0HIR50OUZIH8CWDFI-3K5TEWLKGW03OSHO90B5R2W75W8VIH.json,1,switch,FALSE
5570.395,trash,NA,615850,8,N,8,unknown,8,/Users/dan/Projects/callab/tunkel/Negation2.0/raw_data/Experiment3/positionB/production-results/3OID399FXGWUY0HIR50OUZIH8CWDFI-3K5TEWLKGW03OSHO90B5R2W75W8VIH.json,1,standard,FALSE
3275.45,chair,NA,619980,9,9,E,known,8,/Users/dan/Projects/callab/tunkel/Negation2.0/raw_data/Experiment3/positionB/production-results/3OID399FXGWUY0HIR50OUZIH8CWDFI-3K5TEWLKGW03OSHO90B5R2W75W8VIH.json,1,standard,FALSE
3047.55,shoe,NA,624884,10,3,C,known,8,/Users/dan/Projects/callab/tunkel/Negation2.0/raw_data/Experiment3/positionB/production-results/3OID399FXGWUY0HIR50OUZIH8CWDFI-3K5TEWLKGW03OSHO90B5R2W75W8VIH.json,1,standard,FALSE
14291.815,gyroscope,NA,640532,11,I,12,unknown,8,/Users/dan/Projects/callab/tunkel/Negation2.0/raw_data/Experiment3/positionB/production-results/3OID399FXGWUY0HIR50OUZIH8CWDFI-3K5TEWLKGW03OSHO90B5R2W75W8VIH.json,1,standard,FALSE
2827.835,dice,NA,644716,12,7,H,known,8,/Users/dan/Projects/callab/tunkel/Negation2.0/raw_data/Experiment3/positionB/production-results/3OID399FXGWUY0HIR50OUZIH8CWDFI-3K5TEWLKGW03OSHO90B5R2W75W8VIH.json,1,standard,FALSE
2567.34,dice,NA,648141,13,1,H,known,8,/Users/dan/Projects/callab/tunkel/Negation2.0/raw_data/Experiment3/positionB/production-results/3OID399FXGWUY0HIR50OUZIH8CWDFI-3K5TEWLKGW03OSHO90B5R2W75W8VIH.json,2,standard,FALSE
1919.13,dice,NA,651915,14,16,H,known,8,/Users/dan/Projects/callab/tunkel/Negation2.0/raw_data/Experiment3/positionB/production-results/3OID399FXGWUY0HIR50OUZIH8CWDFI-3K5TEWLKGW03OSHO90B5R2W75W8VIH.json,3,standard,FALSE
11514.725,suction,NA,666036,15,D,10,unknown,8,/Users/dan/Projects/callab/tunkel/Negation2.0/raw_data/Experiment3/positionB/production-results/3OID399FXGWUY0HIR50OUZIH8CWDFI-3K5TEWLKGW03OSHO90B5R2W75W8VIH.json,1,switch,FALSE
1838.79,cat,NA,669979,16,15,B,known,8,/Users/dan/Projects/callab/tunkel/Negation2.0/raw_data/Experiment3/positionB/production-results/3OID399FXGWUY0HIR50OUZIH8CWDFI-3K5TEWLKGW03OSHO90B5R2W75W8VIH.json,1,standard,FALSE
15430.15,plunger,NA,688515,17,L,4,unknown,8,/Users/dan/Projects/callab/tunkel/Negation2.0/raw_data/Experiment3/positionB/production-results/3OID399FXGWUY0HIR50OUZIH8CWDFI-3K5TEWLKGW03OSHO90B5R2W75W8VIH.json,1,standard,FALSE
6886.275,vase,NA,698507,18,H,2,unknown,8,/Users/dan/Projects/callab/tunkel/Negation2.0/raw_data/Experiment3/positionB/production-results/3OID399FXGWUY0HIR50OUZIH8CWDFI-3K5TEWLKGW03OSHO90B5R2W75W8VIH.json,1,standard,FALSE
43248.52,weird shape with 5 legs,NA,146474,3,E,5,unknown,9,/Users/dan/Projects/callab/tunkel/Negation2.0/raw_data/Experiment3/positionA/production-results/336OE47KI29I333Z8FAI49AO3MPVWW-386CSBG1O0BVQ0Q6L086OC7UFDZ6Q5.json,1,standard,FALSE
6092.855,pen,NA,155171,4,16,D,known,9,/Users/dan/Projects/callab/tunkel/Negation2.0/raw_data/Experiment3/positionA/production-results/336OE47KI29I333Z8FAI49AO3MPVWW-386CSBG1O0BVQ0Q6L086OC7UFDZ6Q5.json,1,standard,FALSE
5090.105,pen,NA,161364,5,10,D,known,9,/Users/dan/Projects/callab/tunkel/Negation2.0/raw_data/Experiment3/positionA/production-results/336OE47KI29I333Z8FAI49AO3MPVWW-386CSBG1O0BVQ0Q6L086OC7UFDZ6Q5.json,2,standard,FALSE
3362.445,pen,NA,166581,6,3,D,known,9,/Users/dan/Projects/callab/tunkel/Negation2.0/raw_data/Experiment3/positionA/production-results/336OE47KI29I333Z8FAI49AO3MPVWW-386CSBG1O0BVQ0Q6L086OC7UFDZ6Q5.json,3,standard,FALSE
11772.505,something that holds a rope,NA,179206,7,C,6,unknown,9,/Users/dan/Projects/callab/tunkel/Negation2.0/raw_data/Experiment3/positionA/production-results/336OE47KI29I333Z8FAI49AO3MPVWW-386CSBG1O0BVQ0Q6L086OC7UFDZ6Q5.json,1,switch,FALSE
5243.475,flower,NA,186304,8,12,L,known,9,/Users/dan/Projects/callab/tunkel/Negation2.0/raw_data/Experiment3/positionA/production-results/336OE47KI29I333Z8FAI49AO3MPVWW-386CSBG1O0BVQ0Q6L086OC7UFDZ6Q5.json,1,standard,FALSE
31825.93,weird shape with many extrusions like 2 balls,NA,219484,9,B,1,unknown,9,/Users/dan/Projects/callab/tunkel/Negation2.0/raw_data/Experiment3/positionA/production-results/336OE47KI29I333Z8FAI49AO3MPVWW-386CSBG1O0BVQ0Q6L086OC7UFDZ6Q5.json,1,standard,FALSE
21217.495,weird spherical shape with many extrusions,NA,242054,10,D,11,unknown,9,/Users/dan/Projects/callab/tunkel/Negation2.0/raw_data/Experiment3/positionA/production-results/336OE47KI29I333Z8FAI49AO3MPVWW-386CSBG1O0BVQ0Q6L086OC7UFDZ6Q5.json,1,standard,FALSE
10538.53,scorpion,NA,253696,11,7,N,known,9,/Users/dan/Projects/callab/tunkel/Negation2.0/raw_data/Experiment3/positionA/production-results/336OE47KI29I333Z8FAI49AO3MPVWW-386CSBG1O0BVQ0Q6L086OC7UFDZ6Q5.json,1,standard,FALSE
13058.06,puzzle blocks,NA,268858,12,K,15,unknown,9,/Users/dan/Projects/callab/tunkel/Negation2.0/raw_data/Experiment3/positionA/production-results/336OE47KI29I333Z8FAI49AO3MPVWW-386CSBG1O0BVQ0Q6L086OC7UFDZ6Q5.json,1,standard,FALSE
6845.43,puzzle blocks,NA,278307,13,A,15,unknown,9,/Users/dan/Projects/callab/tunkel/Negation2.0/raw_data/Experiment3/positionA/production-results/336OE47KI29I333Z8FAI49AO3MPVWW-386CSBG1O0BVQ0Q6L086OC7UFDZ6Q5.json,2,standard,FALSE
5019.89,puzzle blocks,NA,284179,14,G,15,unknown,9,/Users/dan/Projects/callab/tunkel/Negation2.0/raw_data/Experiment3/positionA/production-results/336OE47KI29I333Z8FAI49AO3MPVWW-386CSBG1O0BVQ0Q6L086OC7UFDZ6Q5.json,3,standard,FALSE
3165.385,tree,NA,289948,15,8,J,known,9,/Users/dan/Projects/callab/tunkel/Negation2.0/raw_data/Experiment3/positionA/production-results/336OE47KI29I333Z8FAI49AO3MPVWW-386CSBG1O0BVQ0Q6L086OC7UFDZ6Q5.json,1,switch,FALSE
18237.005,donut shape with 4 legs,NA,310038,16,F,4,unknown,9,/Users/dan/Projects/callab/tunkel/Negation2.0/raw_data/Experiment3/positionA/production-results/336OE47KI29I333Z8FAI49AO3MPVWW-386CSBG1O0BVQ0Q6L086OC7UFDZ6Q5.json,1,standard,FALSE
4428.595,cup,NA,317071,17,2,M,known,9,/Users/dan/Projects/callab/tunkel/Negation2.0/raw_data/Experiment3/positionA/production-results/336OE47KI29I333Z8FAI49AO3MPVWW-386CSBG1O0BVQ0Q6L086OC7UFDZ6Q5.json,1,standard,FALSE
4461.78,dice,NA,323136,18,15,H,known,9,/Users/dan/Projects/callab/tunkel/Negation2.0/raw_data/Experiment3/positionA/production-results/336OE47KI29I333Z8FAI49AO3MPVWW-386CSBG1O0BVQ0Q6L086OC7UFDZ6Q5.json,1,standard,FALSE
3540.385,shoe,NA,383260,3,2,C,known,10,/Users/dan/Projects/callab/tunkel/Negation2.0/raw_data/Experiment3/positionB/production-results/3OID399FXGWUY0HIR50OUZIH8CWDFI-3SNVL38CI5HYVE1CIM1CEQNVCTIKCJ.json,1,standard,FALSE
7847.955,donut,NA,394214,4,L,4,unknown,10,/Users/dan/Projects/callab/tunkel/Negation2.0/raw_data/Experiment3/positionB/production-results/3OID399FXGWUY0HIR50OUZIH8CWDFI-3SNVL38CI5HYVE1CIM1CEQNVCTIKCJ.json,1,standard,FALSE
3290.005,donut,NA,398610,5,G,4,unknown,10,/Users/dan/Projects/callab/tunkel/Negation2.0/raw_data/Experiment3/positionB/production-results/3OID399FXGWUY0HIR50OUZIH8CWDFI-3SNVL38CI5HYVE1CIM1CEQNVCTIKCJ.json,2,standard,FALSE
4122.68,donut,NA,403593,6,H,4,unknown,10,/Users/dan/Projects/callab/tunkel/Negation2.0/raw_data/Experiment3/positionB/production-results/3OID399FXGWUY0HIR50OUZIH8CWDFI-3SNVL38CI5HYVE1CIM1CEQNVCTIKCJ.json,3,standard,FALSE
2901.735,crab,NA,407851,7,9,N,known,10,/Users/dan/Projects/callab/tunkel/Negation2.0/raw_data/Experiment3/positionB/production-results/3OID399FXGWUY0HIR50OUZIH8CWDFI-3SNVL38CI5HYVE1CIM1CEQNVCTIKCJ.json,1,switch,FALSE
5448.49,white,NA,415412,8,A,3,unknown,10,/Users/dan/Projects/callab/tunkel/Negation2.0/raw_data/Experiment3/positionB/production-results/3OID399FXGWUY0HIR50OUZIH8CWDFI-3SNVL38CI5HYVE1CIM1CEQNVCTIKCJ.json,1,standard,FALSE
2143.8,cat,NA,420664,9,10,B,known,10,/Users/dan/Projects/callab/tunkel/Negation2.0/raw_data/Experiment3/positionB/production-results/3OID399FXGWUY0HIR50OUZIH8CWDFI-3SNVL38CI5HYVE1CIM1CEQNVCTIKCJ.json,1,standard,FALSE
2451.19,cup,NA,424223,10,4,M,known,10,/Users/dan/Projects/callab/tunkel/Negation2.0/raw_data/Experiment3/positionB/production-results/3OID399FXGWUY0HIR50OUZIH8CWDFI-3SNVL38CI5HYVE1CIM1CEQNVCTIKCJ.json,1,standard,FALSE
6883.185,plastic,NA,434214,11,K,11,unknown,10,/Users/dan/Projects/callab/tunkel/Negation2.0/raw_data/Experiment3/positionB/production-results/3OID399FXGWUY0HIR50OUZIH8CWDFI-3SNVL38CI5HYVE1CIM1CEQNVCTIKCJ.json,1,standard,FALSE
2194.14,chair,NA,437518,12,5,E,known,10,/Users/dan/Projects/callab/tunkel/Negation2.0/raw_data/Experiment3/positionB/production-results/3OID399FXGWUY0HIR50OUZIH8CWDFI-3SNVL38CI5HYVE1CIM1CEQNVCTIKCJ.json,1,standard,FALSE
2505.825,chair,NA,441382,13,6,E,known,10,/Users/dan/Projects/callab/tunkel/Negation2.0/raw_data/Experiment3/positionB/production-results/3OID399FXGWUY0HIR50OUZIH8CWDFI-3SNVL38CI5HYVE1CIM1CEQNVCTIKCJ.json,2,standard,FALSE
1852.885,chair,NA,445093,14,1,E,known,10,/Users/dan/Projects/callab/tunkel/Negation2.0/raw_data/Experiment3/positionB/production-results/3OID399FXGWUY0HIR50OUZIH8CWDFI-3SNVL38CI5HYVE1CIM1CEQNVCTIKCJ.json,3,standard,FALSE
7122.06,flat,NA,453826,15,D,7,unknown,10,/Users/dan/Projects/callab/tunkel/Negation2.0/raw_data/Experiment3/positionB/production-results/3OID399FXGWUY0HIR50OUZIH8CWDFI-3SNVL38CI5HYVE1CIM1CEQNVCTIKCJ.json,1,switch,FALSE
1548.845,ring,NA,456483,16,8,F,known,10,/Users/dan/Projects/callab/tunkel/Negation2.0/raw_data/Experiment3/positionB/production-results/3OID399FXGWUY0HIR50OUZIH8CWDFI-3SNVL38CI5HYVE1CIM1CEQNVCTIKCJ.json,1,standard,FALSE
2070.97,blocks,NA,460412,17,I,15,unknown,10,/Users/dan/Projects/callab/tunkel/Negation2.0/raw_data/Experiment3/positionB/production-results/3OID399FXGWUY0HIR50OUZIH8CWDFI-3SNVL38CI5HYVE1CIM1CEQNVCTIKCJ.json,1,standard,FALSE
6808.47,top,NA,469331,18,E,12,unknown,10,/Users/dan/Projects/callab/tunkel/Negation2.0/raw_data/Experiment3/positionB/production-results/3OID399FXGWUY0HIR50OUZIH8CWDFI-3SNVL38CI5HYVE1CIM1CEQNVCTIKCJ.json,1,standard,FALSE
593.965,asdf,NA,47995,3,H,9,unknown,11,/Users/dan/Projects/callab/tunkel/Negation2.0/raw_data/Experiment3/positionA/sandbox-results/359AP8GAGG97EFWY9Q25MC0ZSE2C7X-3IJXV6UZ1Y8BVL070G1ZRGLBAWRRI0.json,1,standard,FALSE
524.905,dfg,NA,56920,3,4,H,known,11,/Users/dan/Projects/callab/tunkel/Negation2.0/raw_data/Experiment3/positionB/sandbox-results/366FYU4PTGEA6SNWOBX9G55OJAFEKY-33JKGHPFYDJCC6Y6SOIAAPNIQ8MMNN.json,1,standard,FALSE
456.035,s,NA,49810,4,6,F,known,11,/Users/dan/Projects/callab/tunkel/Negation2.0/raw_data/Experiment3/positionA/sandbox-results/359AP8GAGG97EFWY9Q25MC0ZSE2C7X-3IJXV6UZ1Y8BVL070G1ZRGLBAWRRI0.json,1,standard,FALSE
885.88,sdfg,NA,60912,4,D,11,unknown,11,/Users/dan/Projects/callab/tunkel/Negation2.0/raw_data/Experiment3/positionB/sandbox-results/366FYU4PTGEA6SNWOBX9G55OJAFEKY-33JKGHPFYDJCC6Y6SOIAAPNIQ8MMNN.json,1,standard,FALSE
833.69,sdf,NA,52502,5,1,F,known,11,/Users/dan/Projects/callab/tunkel/Negation2.0/raw_data/Experiment3/positionA/sandbox-results/359AP8GAGG97EFWY9Q25MC0ZSE2C7X-3IJXV6UZ1Y8BVL070G1ZRGLBAWRRI0.json,2,standard,FALSE
1907.245,sdfg,NA,64676,5,L,11,unknown,11,/Users/dan/Projects/callab/tunkel/Negation2.0/raw_data/Experiment3/positionB/sandbox-results/366FYU4PTGEA6SNWOBX9G55OJAFEKY-33JKGHPFYDJCC6Y6SOIAAPNIQ8MMNN.json,2,standard,FALSE
418.05,fsda,NA,56028,6,11,F,known,11,/Users/dan/Projects/callab/tunkel/Negation2.0/raw_data/Experiment3/positionA/sandbox-results/359AP8GAGG97EFWY9Q25MC0ZSE2C7X-3IJXV6UZ1Y8BVL070G1ZRGLBAWRRI0.json,3,standard,FALSE
760.725,sd,NA,66540,6,I,11,unknown,11,/Users/dan/Projects/callab/tunkel/Negation2.0/raw_data/Experiment3/positionB/sandbox-results/366FYU4PTGEA6SNWOBX9G55OJAFEKY-33JKGHPFYDJCC6Y6SOIAAPNIQ8MMNN.json,3,switch,FALSE
352.13,sf,NA,58986,7,A,12,unknown,11,/Users/dan/Projects/callab/tunkel/Negation2.0/raw_data/Experiment3/positionA/sandbox-results/359AP8GAGG97EFWY9Q25MC0ZSE2C7X-3IJXV6UZ1Y8BVL070G1ZRGLBAWRRI0.json,1,switch,FALSE
457.03,sdg,NA,68603,7,5,N,known,11,/Users/dan/Projects/callab/tunkel/Negation2.0/raw_data/Experiment3/positionB/sandbox-results/366FYU4PTGEA6SNWOBX9G55OJAFEKY-33JKGHPFYDJCC6Y6SOIAAPNIQ8MMNN.json,1,standard,FALSE
400.025,ds,NA,61996,8,5,D,known,11,/Users/dan/Projects/callab/tunkel/Negation2.0/raw_data/Experiment3/positionA/sandbox-results/359AP8GAGG97EFWY9Q25MC0ZSE2C7X-3IJXV6UZ1Y8BVL070G1ZRGLBAWRRI0.json,1,standard,FALSE
503.2,sdg,NA,69964,8,J,1,unknown,11,/Users/dan/Projects/callab/tunkel/Negation2.0/raw_data/Experiment3/positionB/sandbox-results/366FYU4PTGEA6SNWOBX9G55OJAFEKY-33JKGHPFYDJCC6Y6SOIAAPNIQ8MMNN.json,1,standard,FALSE
348.89,s,NA,65454,9,E,2,unknown,11,/Users/dan/Projects/callab/tunkel/Negation2.0/raw_data/Experiment3/positionA/sandbox-results/359AP8GAGG97EFWY9Q25MC0ZSE2C7X-3IJXV6UZ1Y8BVL070G1ZRGLBAWRRI0.json,1,standard,FALSE
830.39,gdf,NA,72655,9,12,K,known,11,/Users/dan/Projects/callab/tunkel/Negation2.0/raw_data/Experiment3/positionB/sandbox-results/366FYU4PTGEA6SNWOBX9G55OJAFEKY-33JKGHPFYDJCC6Y6SOIAAPNIQ8MMNN.json,1,standard,FALSE
461.96,sa,NA,69027,10,F,8,unknown,11,/Users/dan/Projects/callab/tunkel/Negation2.0/raw_data/Experiment3/positionA/sandbox-results/359AP8GAGG97EFWY9Q25MC0ZSE2C7X-3IJXV6UZ1Y8BVL070G1ZRGLBAWRRI0.json,1,standard,FALSE
835.96,gd,NA,74849,10,11,A,known,11,/Users/dan/Projects/callab/tunkel/Negation2.0/raw_data/Experiment3/positionB/sandbox-results/366FYU4PTGEA6SNWOBX9G55OJAFEKY-33JKGHPFYDJCC6Y6SOIAAPNIQ8MMNN.json,1,standard,FALSE
755.225,asdf,NA,72393,11,10,J,known,11,/Users/dan/Projects/callab/tunkel/Negation2.0/raw_data/Experiment3/positionA/sandbox-results/359AP8GAGG97EFWY9Q25MC0ZSE2C7X-3IJXV6UZ1Y8BVL070G1ZRGLBAWRRI0.json,1,standard,FALSE
894.095,gfd,NA,77851,11,G,8,unknown,11,/Users/dan/Projects/callab/tunkel/Negation2.0/raw_data/Experiment3/positionB/sandbox-results/366FYU4PTGEA6SNWOBX9G55OJAFEKY-33JKGHPFYDJCC6Y6SOIAAPNIQ8MMNN.json,2,standard,FALSE
501.46,sa,NA,74750,12,N,7,unknown,11,/Users/dan/Projects/callab/tunkel/Negation2.0/raw_data/Experiment3/positionA/sandbox-results/359AP8GAGG97EFWY9Q25MC0ZSE2C7X-3IJXV6UZ1Y8BVL070G1ZRGLBAWRRI0.json,1,standard,FALSE
395.165,g,NA,80854,12,6,M,known,11,/Users/dan/Projects/callab/tunkel/Negation2.0/raw_data/Experiment3/positionB/sandbox-results/366FYU4PTGEA6SNWOBX9G55OJAFEKY-33JKGHPFYDJCC6Y6SOIAAPNIQ8MMNN.json,1,standard,FALSE
456.81,s,NA,76064,13,G,7,unknown,11,/Users/dan/Projects/callab/tunkel/Negation2.0/raw_data/Experiment3/positionA/sandbox-results/359AP8GAGG97EFWY9Q25MC0ZSE2C7X-3IJXV6UZ1Y8BVL070G1ZRGLBAWRRI0.json,2,standard,FALSE
736.69,dgfs,NA,84203,13,9,M,known,11,/Users/dan/Projects/callab/tunkel/Negation2.0/raw_data/Experiment3/positionB/sandbox-results/366FYU4PTGEA6SNWOBX9G55OJAFEKY-33JKGHPFYDJCC6Y6SOIAAPNIQ8MMNN.json,2,standard,FALSE
348.87,s,NA,78267,14,C,7,unknown,11,/Users/dan/Projects/callab/tunkel/Negation2.0/raw_data/Experiment3/positionA/sandbox-results/359AP8GAGG97EFWY9Q25MC0ZSE2C7X-3IJXV6UZ1Y8BVL070G1ZRGLBAWRRI0.json,3,standard,FALSE
834.025,gdfs,NA,86891,14,2,M,known,11,/Users/dan/Projects/callab/tunkel/Negation2.0/raw_data/Experiment3/positionB/sandbox-results/366FYU4PTGEA6SNWOBX9G55OJAFEKY-33JKGHPFYDJCC6Y6SOIAAPNIQ8MMNN.json,3,switch,FALSE
638.45,as,NA,80765,15,16,L,known,11,/Users/dan/Projects/callab/tunkel/Negation2.0/raw_data/Experiment3/positionA/sandbox-results/359AP8GAGG97EFWY9Q25MC0ZSE2C7X-3IJXV6UZ1Y8BVL070G1ZRGLBAWRRI0.json,1,switch,FALSE
701.505,df,NA,89199,15,C,3,unknown,11,/Users/dan/Projects/callab/tunkel/Negation2.0/raw_data/Experiment3/positionB/sandbox-results/366FYU4PTGEA6SNWOBX9G55OJAFEKY-33JKGHPFYDJCC6Y6SOIAAPNIQ8MMNN.json,1,standard,FALSE
533.83,sa,NA,83906,16,B,3,unknown,11,/Users/dan/Projects/callab/tunkel/Negation2.0/raw_data/Experiment3/positionA/sandbox-results/359AP8GAGG97EFWY9Q25MC0ZSE2C7X-3IJXV6UZ1Y8BVL070G1ZRGLBAWRRI0.json,2,standard,FALSE
410.64,sdg,NA,91716,16,10,F,known,11,/Users/dan/Projects/callab/tunkel/Negation2.0/raw_data/Experiment3/positionB/sandbox-results/366FYU4PTGEA6SNWOBX9G55OJAFEKY-33JKGHPFYDJCC6Y6SOIAAPNIQ8MMNN.json,4,standard,FALSE
696.57,asd,NA,85711,17,4,K,known,11,/Users/dan/Projects/callab/tunkel/Negation2.0/raw_data/Experiment3/positionA/sandbox-results/359AP8GAGG97EFWY9Q25MC0ZSE2C7X-3IJXV6UZ1Y8BVL070G1ZRGLBAWRRI0.json,2,standard,FALSE
624.755,fgd,NA,94948,17,E,16,unknown,11,/Users/dan/Projects/callab/tunkel/Negation2.0/raw_data/Experiment3/positionB/sandbox-results/366FYU4PTGEA6SNWOBX9G55OJAFEKY-33JKGHPFYDJCC6Y6SOIAAPNIQ8MMNN.json,1,standard,FALSE
742.27,asdf,NA,87564,18,7,I,known,11,/Users/dan/Projects/callab/tunkel/Negation2.0/raw_data/Experiment3/positionA/sandbox-results/359AP8GAGG97EFWY9Q25MC0ZSE2C7X-3IJXV6UZ1Y8BVL070G1ZRGLBAWRRI0.json,1,standard,FALSE
2945.545,sd,NA,99003,18,M,7,unknown,11,/Users/dan/Projects/callab/tunkel/Negation2.0/raw_data/Experiment3/positionB/sandbox-results/366FYU4PTGEA6SNWOBX9G55OJAFEKY-33JKGHPFYDJCC6Y6SOIAAPNIQ8MMNN.json,4,standard,FALSE
3639.65,butterfly,NA,687220,3,6,K,known,12,/Users/dan/Projects/callab/tunkel/Negation2.0/raw_data/Experiment3/positionB/production-results/3OID399FXGWUY0HIR50OUZIH8CWDFI-3OCHAWUVGP9MYCC79IXZS385DB5XKX.json,1,standard,FALSE
13855.215,some kind of weird cube thing,NA,702935,4,A,11,unknown,12,/Users/dan/Projects/callab/tunkel/Negation2.0/raw_data/Experiment3/positionB/production-results/3OID399FXGWUY0HIR50OUZIH8CWDFI-3OCHAWUVGP9MYCC79IXZS385DB5XKX.json,1,standard,FALSE
17093.2,some kind of weird cube thing,NA,721137,5,H,11,unknown,12,/Users/dan/Projects/callab/tunkel/Negation2.0/raw_data/Experiment3/positionB/production-results/3OID399FXGWUY0HIR50OUZIH8CWDFI-3OCHAWUVGP9MYCC79IXZS385DB5XKX.json,2,standard,FALSE
12610.595,some kind of spikey cube thing,NA,735357,6,B,11,unknown,12,/Users/dan/Projects/callab/tunkel/Negation2.0/raw_data/Experiment3/positionB/production-results/3OID399FXGWUY0HIR50OUZIH8CWDFI-3OCHAWUVGP9MYCC79IXZS385DB5XKX.json,3,standard,FALSE
4131.77,pen,NA,741598,7,12,D,known,12,/Users/dan/Projects/callab/tunkel/Negation2.0/raw_data/Experiment3/positionB/production-results/3OID399FXGWUY0HIR50OUZIH8CWDFI-3OCHAWUVGP9MYCC79IXZS385DB5XKX.json,1,switch,FALSE
3814.45,blimp,NA,748521,8,C,16,unknown,12,/Users/dan/Projects/callab/tunkel/Negation2.0/raw_data/Experiment3/positionB/production-results/3OID399FXGWUY0HIR50OUZIH8CWDFI-3OCHAWUVGP9MYCC79IXZS385DB5XKX.json,1,standard,FALSE
2464.915,flower,NA,752846,9,3,L,known,12,/Users/dan/Projects/callab/tunkel/Negation2.0/raw_data/Experiment3/positionB/production-results/3OID399FXGWUY0HIR50OUZIH8CWDFI-3OCHAWUVGP9MYCC79IXZS385DB5XKX.json,1,standard,FALSE
2269.715,crab,NA,756476,10,11,N,known,12,/Users/dan/Projects/callab/tunkel/Negation2.0/raw_data/Experiment3/positionB/production-results/3OID399FXGWUY0HIR50OUZIH8CWDFI-3OCHAWUVGP9MYCC79IXZS385DB5XKX.json,1,standard,FALSE
8549.95,crumpled ball thing,NA,766384,11,G,8,unknown,12,/Users/dan/Projects/callab/tunkel/Negation2.0/raw_data/Experiment3/positionB/production-results/3OID399FXGWUY0HIR50OUZIH8CWDFI-3OCHAWUVGP9MYCC79IXZS385DB5XKX.json,1,standard,FALSE
2558.985,ring,NA,769802,12,10,F,known,12,/Users/dan/Projects/callab/tunkel/Negation2.0/raw_data/Experiment3/positionB/production-results/3OID399FXGWUY0HIR50OUZIH8CWDFI-3OCHAWUVGP9MYCC79IXZS385DB5XKX.json,1,standard,FALSE
1984.4,ring,NA,772894,13,7,F,known,12,/Users/dan/Projects/callab/tunkel/Negation2.0/raw_data/Experiment3/positionB/production-results/3OID399FXGWUY0HIR50OUZIH8CWDFI-3OCHAWUVGP9MYCC79IXZS385DB5XKX.json,2,standard,FALSE
3645.165,ring,NA,777397,14,2,F,known,12,/Users/dan/Projects/callab/tunkel/Negation2.0/raw_data/Experiment3/positionB/production-results/3OID399FXGWUY0HIR50OUZIH8CWDFI-3OCHAWUVGP9MYCC79IXZS385DB5XKX.json,3,standard,FALSE
12993.39,long three spikes on each end,NA,793501,15,I,5,unknown,12,/Users/dan/Projects/callab/tunkel/Negation2.0/raw_data/Experiment3/positionB/production-results/3OID399FXGWUY0HIR50OUZIH8CWDFI-3OCHAWUVGP9MYCC79IXZS385DB5XKX.json,1,switch,FALSE
2022.55,chair,NA,796634,16,1,E,known,12,/Users/dan/Projects/callab/tunkel/Negation2.0/raw_data/Experiment3/positionB/production-results/3OID399FXGWUY0HIR50OUZIH8CWDFI-3OCHAWUVGP9MYCC79IXZS385DB5XKX.json,1,standard,FALSE
9024.06,four balls on rods,NA,807766,17,M,4,unknown,12,/Users/dan/Projects/callab/tunkel/Negation2.0/raw_data/Experiment3/positionB/production-results/3OID399FXGWUY0HIR50OUZIH8CWDFI-3OCHAWUVGP9MYCC79IXZS385DB5XKX.json,1,standard,FALSE
4224.805,blocks,NA,815100,18,F,15,unknown,12,/Users/dan/Projects/callab/tunkel/Negation2.0/raw_data/Experiment3/positionB/production-results/3OID399FXGWUY0HIR50OUZIH8CWDFI-3OCHAWUVGP9MYCC79IXZS385DB5XKX.json,1,standard,FALSE
5269.36,stick thing,NA,86718,3,A,10,unknown,13,/Users/dan/Projects/callab/tunkel/Negation2.0/raw_data/Experiment3/positionA/production-results/336OE47KI29I333Z8FAI49AO3MPVWW-3QHK8ZVMIN7Q5FROPMHII6USJ8NBL6.json,1,standard,FALSE
1993.765,fork,NA,90067,4,6,G,known,13,/Users/dan/Projects/callab/tunkel/Negation2.0/raw_data/Experiment3/positionA/production-results/336OE47KI29I333Z8FAI49AO3MPVWW-3QHK8ZVMIN7Q5FROPMHII6USJ8NBL6.json,1,standard,FALSE
1732.355,fork,NA,93654,5,16,G,known,13,/Users/dan/Projects/callab/tunkel/Negation2.0/raw_data/Experiment3/positionA/production-results/336OE47KI29I333Z8FAI49AO3MPVWW-3QHK8ZVMIN7Q5FROPMHII6USJ8NBL6.json,2,standard,FALSE
1194.16,fork,NA,96202,6,1,G,known,13,/Users/dan/Projects/callab/tunkel/Negation2.0/raw_data/Experiment3/positionA/production-results/336OE47KI29I333Z8FAI49AO3MPVWW-3QHK8ZVMIN7Q5FROPMHII6USJ8NBL6.json,3,standard,FALSE
4170.445,gelatinous object,NA,102228,7,B,2,unknown,13,/Users/dan/Projects/callab/tunkel/Negation2.0/raw_data/Experiment3/positionA/production-results/336OE47KI29I333Z8FAI49AO3MPVWW-3QHK8ZVMIN7Q5FROPMHII6USJ8NBL6.json,1,switch,FALSE
1351.29,chair,NA,105183,8,5,E,known,13,/Users/dan/Projects/callab/tunkel/Negation2.0/raw_data/Experiment3/positionA/production-results/336OE47KI29I333Z8FAI49AO3MPVWW-3QHK8ZVMIN7Q5FROPMHII6USJ8NBL6.json,1,standard,FALSE
3727.265,looks like a instrument,NA,110264,9,F,12,unknown,13,/Users/dan/Projects/callab/tunkel/Negation2.0/raw_data/Experiment3/positionA/production-results/336OE47KI29I333Z8FAI49AO3MPVWW-3QHK8ZVMIN7Q5FROPMHII6USJ8NBL6.json,1,standard,FALSE
4830.72,multi shaped thingy,NA,116199,10,G,11,unknown,13,/Users/dan/Projects/callab/tunkel/Negation2.0/raw_data/Experiment3/positionA/production-results/336OE47KI29I333Z8FAI49AO3MPVWW-3QHK8ZVMIN7Q5FROPMHII6USJ8NBL6.json,1,standard,FALSE
1240.575,tree,NA,119545,11,15,J,known,13,/Users/dan/Projects/callab/tunkel/Negation2.0/raw_data/Experiment3/positionA/production-results/336OE47KI29I333Z8FAI49AO3MPVWW-3QHK8ZVMIN7Q5FROPMHII6USJ8NBL6.json,1,standard,FALSE
5396.455,bunny ears lol,NA,127046,12,K,4,unknown,13,/Users/dan/Projects/callab/tunkel/Negation2.0/raw_data/Experiment3/positionA/production-results/336OE47KI29I333Z8FAI49AO3MPVWW-3QHK8ZVMIN7Q5FROPMHII6USJ8NBL6.json,1,standard,FALSE
1655.505,bunny ears,NA,129805,13,C,4,unknown,13,/Users/dan/Projects/callab/tunkel/Negation2.0/raw_data/Experiment3/positionA/production-results/336OE47KI29I333Z8FAI49AO3MPVWW-3QHK8ZVMIN7Q5FROPMHII6USJ8NBL6.json,2,standard,FALSE
1471,bunny ears,NA,132380,14,I,4,unknown,13,/Users/dan/Projects/callab/tunkel/Negation2.0/raw_data/Experiment3/positionA/production-results/336OE47KI29I333Z8FAI49AO3MPVWW-3QHK8ZVMIN7Q5FROPMHII6USJ8NBL6.json,3,standard,FALSE
1246.395,flower,NA,134730,15,7,L,known,13,/Users/dan/Projects/callab/tunkel/Negation2.0/raw_data/Experiment3/positionA/production-results/336OE47KI29I333Z8FAI49AO3MPVWW-3QHK8ZVMIN7Q5FROPMHII6USJ8NBL6.json,1,switch,FALSE
3661.785,stick with the tube,NA,139496,16,N,9,unknown,13,/Users/dan/Projects/callab/tunkel/Negation2.0/raw_data/Experiment3/positionA/production-results/336OE47KI29I333Z8FAI49AO3MPVWW-3QHK8ZVMIN7Q5FROPMHII6USJ8NBL6.json,1,standard,FALSE
1151.515,dice,NA,143252,17,3,H,known,13,/Users/dan/Projects/callab/tunkel/Negation2.0/raw_data/Experiment3/positionA/production-results/336OE47KI29I333Z8FAI49AO3MPVWW-3QHK8ZVMIN7Q5FROPMHII6USJ8NBL6.json,1,standard,FALSE
1492.205,mug,NA,147348,18,4,M,known,13,/Users/dan/Projects/callab/tunkel/Negation2.0/raw_data/Experiment3/positionA/production-results/336OE47KI29I333Z8FAI49AO3MPVWW-3QHK8ZVMIN7Q5FROPMHII6USJ8NBL6.json,1,standard,FALSE
4285.84,appple,NA,112235,3,4,A,known,14,/Users/dan/Projects/callab/tunkel/Negation2.0/raw_data/Experiment3/positionB/production-results/3OID399FXGWUY0HIR50OUZIH8CWDFI-3137ONMDKHU8QQP7OMMS6MV5QODGE4.json,1,standard,FALSE
7026.42,not the chair,NA,122372,4,E,2,unknown,14,/Users/dan/Projects/callab/tunkel/Negation2.0/raw_data/Experiment3/positionB/production-results/3OID399FXGWUY0HIR50OUZIH8CWDFI-3137ONMDKHU8QQP7OMMS6MV5QODGE4.json,1,standard,TRUE
5264.81,not the tree,NA,129251,5,J,2,unknown,14,/Users/dan/Projects/callab/tunkel/Negation2.0/raw_data/Experiment3/positionB/production-results/3OID399FXGWUY0HIR50OUZIH8CWDFI-3137ONMDKHU8QQP7OMMS6MV5QODGE4.json,2,standard,TRUE
4137.775,not the die,NA,135005,6,H,2,unknown,14,/Users/dan/Projects/callab/tunkel/Negation2.0/raw_data/Experiment3/positionB/production-results/3OID399FXGWUY0HIR50OUZIH8CWDFI-3137ONMDKHU8QQP7OMMS6MV5QODGE4.json,3,standard,TRUE
3174.705,cat,NA,139790,7,9,B,known,14,/Users/dan/Projects/callab/tunkel/Negation2.0/raw_data/Experiment3/positionB/production-results/3OID399FXGWUY0HIR50OUZIH8CWDFI-3137ONMDKHU8QQP7OMMS6MV5QODGE4.json,1,switch,FALSE
4574.925,not the mug,NA,145975,8,M,7,unknown,14,/Users/dan/Projects/callab/tunkel/Negation2.0/raw_data/Experiment3/positionB/production-results/3OID399FXGWUY0HIR50OUZIH8CWDFI-3137ONMDKHU8QQP7OMMS6MV5QODGE4.json,1,standard,TRUE
4765.065,shoe,NA,152856,9,12,C,known,14,/Users/dan/Projects/callab/tunkel/Negation2.0/raw_data/Experiment3/positionB/production-results/3OID399FXGWUY0HIR50OUZIH8CWDFI-3137ONMDKHU8QQP7OMMS6MV5QODGE4.json,1,standard,FALSE
4505.265,flower,NA,159970,10,2,L,known,14,/Users/dan/Projects/callab/tunkel/Negation2.0/raw_data/Experiment3/positionB/production-results/3OID399FXGWUY0HIR50OUZIH8CWDFI-3137ONMDKHU8QQP7OMMS6MV5QODGE4.json,1,standard,FALSE
5638.835,not the fork,NA,168730,11,G,11,unknown,14,/Users/dan/Projects/callab/tunkel/Negation2.0/raw_data/Experiment3/positionB/production-results/3OID399FXGWUY0HIR50OUZIH8CWDFI-3137ONMDKHU8QQP7OMMS6MV5QODGE4.json,1,standard,TRUE
5539.64,butterfly,NA,175131,12,5,K,known,14,/Users/dan/Projects/callab/tunkel/Negation2.0/raw_data/Experiment3/positionB/production-results/3OID399FXGWUY0HIR50OUZIH8CWDFI-3137ONMDKHU8QQP7OMMS6MV5QODGE4.json,1,standard,FALSE
4442.73,butterfly,NA,182688,13,3,K,known,14,/Users/dan/Projects/callab/tunkel/Negation2.0/raw_data/Experiment3/positionB/production-results/3OID399FXGWUY0HIR50OUZIH8CWDFI-3137ONMDKHU8QQP7OMMS6MV5QODGE4.json,2,standard,FALSE
3488.515,butterfly,NA,188285,14,15,K,known,14,/Users/dan/Projects/callab/tunkel/Negation2.0/raw_data/Experiment3/positionB/production-results/3OID399FXGWUY0HIR50OUZIH8CWDFI-3137ONMDKHU8QQP7OMMS6MV5QODGE4.json,3,standard,FALSE
8767.01,not the ring,NA,198416,15,F,16,unknown,14,/Users/dan/Projects/callab/tunkel/Negation2.0/raw_data/Experiment3/positionB/production-results/3OID399FXGWUY0HIR50OUZIH8CWDFI-3137ONMDKHU8QQP7OMMS6MV5QODGE4.json,1,switch,TRUE
3233.805,car,NA,202508,16,10,I,known,14,/Users/dan/Projects/callab/tunkel/Negation2.0/raw_data/Experiment3/positionB/production-results/3OID399FXGWUY0HIR50OUZIH8CWDFI-3137ONMDKHU8QQP7OMMS6MV5QODGE4.json,1,standard,FALSE
5228.92,not the pen,NA,209597,17,D,1,unknown,14,/Users/dan/Projects/callab/tunkel/Negation2.0/raw_data/Experiment3/positionB/production-results/3OID399FXGWUY0HIR50OUZIH8CWDFI-3137ONMDKHU8QQP7OMMS6MV5QODGE4.json,1,standard,TRUE
7615.64,not the butterfly,NA,218573,18,K,8,unknown,14,/Users/dan/Projects/callab/tunkel/Negation2.0/raw_data/Experiment3/positionB/production-results/3OID399FXGWUY0HIR50OUZIH8CWDFI-3137ONMDKHU8QQP7OMMS6MV5QODGE4.json,1,standard,TRUE
27367,its a blob,NA,281557,3,K,11,unknown,15,/Users/dan/Projects/callab/tunkel/Negation2.0/raw_data/Experiment3/positionA/production-results/336OE47KI29I333Z8FAI49AO3MPVWW-3SITXWYCNWYL598D35K6T0PFQH1XBI.json,1,standard,FALSE
9411,apple,NA,293571,4,15,A,known,15,/Users/dan/Projects/callab/tunkel/Negation2.0/raw_data/Experiment3/positionA/production-results/336OE47KI29I333Z8FAI49AO3MPVWW-3SITXWYCNWYL598D35K6T0PFQH1XBI.json,1,standard,FALSE
15552,an apple,NA,311230,5,6,A,known,15,/Users/dan/Projects/callab/tunkel/Negation2.0/raw_data/Experiment3/positionA/production-results/336OE47KI29I333Z8FAI49AO3MPVWW-3SITXWYCNWYL598D35K6T0PFQH1XBI.json,2,standard,FALSE
11853,another apple,NA,325699,6,2,A,known,15,/Users/dan/Projects/callab/tunkel/Negation2.0/raw_data/Experiment3/positionA/production-results/336OE47KI29I333Z8FAI49AO3MPVWW-3SITXWYCNWYL598D35K6T0PFQH1XBI.json,3,standard,TRUE
61612,it is abstract,NA,388918,7,L,4,unknown,15,/Users/dan/Projects/callab/tunkel/Negation2.0/raw_data/Experiment3/positionA/production-results/336OE47KI29I333Z8FAI49AO3MPVWW-3SITXWYCNWYL598D35K6T0PFQH1XBI.json,1,switch,FALSE
7564,a tree,NA,398085,8,3,J,known,15,/Users/dan/Projects/callab/tunkel/Negation2.0/raw_data/Experiment3/positionA/production-results/336OE47KI29I333Z8FAI49AO3MPVWW-3SITXWYCNWYL598D35K6T0PFQH1XBI.json,1,standard,FALSE
8173,a toy,NA,409374,9,F,1,unknown,15,/Users/dan/Projects/callab/tunkel/Negation2.0/raw_data/Experiment3/positionA/production-results/336OE47KI29I333Z8FAI49AO3MPVWW-3SITXWYCNWYL598D35K6T0PFQH1XBI.json,1,standard,FALSE
14594,abstract item,NA,426099,10,A,8,unknown,15,/Users/dan/Projects/callab/tunkel/Negation2.0/raw_data/Experiment3/positionA/production-results/336OE47KI29I333Z8FAI49AO3MPVWW-3SITXWYCNWYL598D35K6T0PFQH1XBI.json,1,standard,FALSE
4891,a pen,NA,433114,11,9,D,known,15,/Users/dan/Projects/callab/tunkel/Negation2.0/raw_data/Experiment3/positionA/production-results/336OE47KI29I333Z8FAI49AO3MPVWW-3SITXWYCNWYL598D35K6T0PFQH1XBI.json,1,standard,FALSE
11644,an object,NA,447869,12,C,5,unknown,15,/Users/dan/Projects/callab/tunkel/Negation2.0/raw_data/Experiment3/positionA/production-results/336OE47KI29I333Z8FAI49AO3MPVWW-3SITXWYCNWYL598D35K6T0PFQH1XBI.json,1,standard,FALSE
15735,a weird object,NA,466709,13,M,5,unknown,15,/Users/dan/Projects/callab/tunkel/Negation2.0/raw_data/Experiment3/positionA/production-results/336OE47KI29I333Z8FAI49AO3MPVWW-3SITXWYCNWYL598D35K6T0PFQH1XBI.json,2,standard,FALSE
12210,what is it,NA,480523,14,E,5,unknown,15,/Users/dan/Projects/callab/tunkel/Negation2.0/raw_data/Experiment3/positionA/production-results/336OE47KI29I333Z8FAI49AO3MPVWW-3SITXWYCNWYL598D35K6T0PFQH1XBI.json,3,standard,FALSE
6283,a fork,NA,487661,15,16,G,known,15,/Users/dan/Projects/callab/tunkel/Negation2.0/raw_data/Experiment3/positionA/production-results/336OE47KI29I333Z8FAI49AO3MPVWW-3SITXWYCNWYL598D35K6T0PFQH1XBI.json,1,switch,FALSE
9707,a slipper,NA,498977,16,N,7,unknown,15,/Users/dan/Projects/callab/tunkel/Negation2.0/raw_data/Experiment3/positionA/production-results/336OE47KI29I333Z8FAI49AO3MPVWW-3SITXWYCNWYL598D35K6T0PFQH1XBI.json,1,standard,FALSE
6179,a car,NA,506260,17,12,I,known,15,/Users/dan/Projects/callab/tunkel/Negation2.0/raw_data/Experiment3/positionA/production-results/336OE47KI29I333Z8FAI49AO3MPVWW-3SITXWYCNWYL598D35K6T0PFQH1XBI.json,1,standard,FALSE
10113,dice,NA,517241,18,5,H,known,15,/Users/dan/Projects/callab/tunkel/Negation2.0/raw_data/Experiment3/positionA/production-results/336OE47KI29I333Z8FAI49AO3MPVWW-3SITXWYCNWYL598D35K6T0PFQH1XBI.json,1,standard,FALSE
1968.86,tree,NA,117050,3,2,J,known,16,/Users/dan/Projects/callab/tunkel/Negation2.0/raw_data/Experiment3/positionB/production-results/3OID399FXGWUY0HIR50OUZIH8CWDFI-3R0T90IZ1T1TTS5TSVGXGYV25C0GCB.json,1,standard,FALSE
3658.93,not cat,NA,122322,4,B,7,unknown,16,/Users/dan/Projects/callab/tunkel/Negation2.0/raw_data/Experiment3/positionB/production-results/3OID399FXGWUY0HIR50OUZIH8CWDFI-3R0T90IZ1T1TTS5TSVGXGYV25C0GCB.json,1,standard,TRUE
3146.99,not fork,NA,127329,5,G,7,unknown,16,/Users/dan/Projects/callab/tunkel/Negation2.0/raw_data/Experiment3/positionB/production-results/3OID399FXGWUY0HIR50OUZIH8CWDFI-3R0T90IZ1T1TTS5TSVGXGYV25C0GCB.json,2,standard,TRUE
2460.045,not flower,NA,130898,6,L,7,unknown,16,/Users/dan/Projects/callab/tunkel/Negation2.0/raw_data/Experiment3/positionB/production-results/3OID399FXGWUY0HIR50OUZIH8CWDFI-3R0T90IZ1T1TTS5TSVGXGYV25C0GCB.json,3,standard,TRUE
1609.58,chair,NA,134114,7,9,E,known,16,/Users/dan/Projects/callab/tunkel/Negation2.0/raw_data/Experiment3/positionB/production-results/3OID399FXGWUY0HIR50OUZIH8CWDFI-3R0T90IZ1T1TTS5TSVGXGYV25C0GCB.json,1,switch,FALSE
3872.675,not apple,NA,138842,8,A,5,unknown,16,/Users/dan/Projects/callab/tunkel/Negation2.0/raw_data/Experiment3/positionB/production-results/3OID399FXGWUY0HIR50OUZIH8CWDFI-3R0T90IZ1T1TTS5TSVGXGYV25C0GCB.json,1,standard,TRUE
1914.795,car,NA,141865,9,6,I,known,16,/Users/dan/Projects/callab/tunkel/Negation2.0/raw_data/Experiment3/positionB/production-results/3OID399FXGWUY0HIR50OUZIH8CWDFI-3R0T90IZ1T1TTS5TSVGXGYV25C0GCB.json,1,standard,FALSE
2001.37,ring,NA,144722,10,7,F,known,16,/Users/dan/Projects/callab/tunkel/Negation2.0/raw_data/Experiment3/positionB/production-results/3OID399FXGWUY0HIR50OUZIH8CWDFI-3R0T90IZ1T1TTS5TSVGXGYV25C0GCB.json,1,standard,FALSE
2261.77,blocks,NA,148345,11,H,15,unknown,16,/Users/dan/Projects/callab/tunkel/Negation2.0/raw_data/Experiment3/positionB/production-results/3OID399FXGWUY0HIR50OUZIH8CWDFI-3R0T90IZ1T1TTS5TSVGXGYV25C0GCB.json,1,standard,FALSE
2093.01,shoe,NA,153545,12,10,C,known,16,/Users/dan/Projects/callab/tunkel/Negation2.0/raw_data/Experiment3/positionB/production-results/3OID399FXGWUY0HIR50OUZIH8CWDFI-3R0T90IZ1T1TTS5TSVGXGYV25C0GCB.json,1,standard,FALSE
1436.01,shoe,NA,155843,13,16,C,known,16,/Users/dan/Projects/callab/tunkel/Negation2.0/raw_data/Experiment3/positionB/production-results/3OID399FXGWUY0HIR50OUZIH8CWDFI-3R0T90IZ1T1TTS5TSVGXGYV25C0GCB.json,2,standard,FALSE
1572.285,shoe,NA,160521,14,3,C,known,16,/Users/dan/Projects/callab/tunkel/Negation2.0/raw_data/Experiment3/positionB/production-results/3OID399FXGWUY0HIR50OUZIH8CWDFI-3R0T90IZ1T1TTS5TSVGXGYV25C0GCB.json,3,standard,FALSE
3181.56,not cup,NA,165810,15,M,12,unknown,16,/Users/dan/Projects/callab/tunkel/Negation2.0/raw_data/Experiment3/positionB/production-results/3OID399FXGWUY0HIR50OUZIH8CWDFI-3R0T90IZ1T1TTS5TSVGXGYV25C0GCB.json,1,switch,TRUE
1606.34,pen,NA,169273,16,11,D,known,16,/Users/dan/Projects/callab/tunkel/Negation2.0/raw_data/Experiment3/positionB/production-results/3OID399FXGWUY0HIR50OUZIH8CWDFI-3R0T90IZ1T1TTS5TSVGXGYV25C0GCB.json,1,standard,FALSE
3501.315,not butterfly,NA,175386,17,K,8,unknown,16,/Users/dan/Projects/callab/tunkel/Negation2.0/raw_data/Experiment3/positionB/production-results/3OID399FXGWUY0HIR50OUZIH8CWDFI-3R0T90IZ1T1TTS5TSVGXGYV25C0GCB.json,1,standard,TRUE
2234.8,not shoe,NA,178729,18,C,4,unknown,16,/Users/dan/Projects/callab/tunkel/Negation2.0/raw_data/Experiment3/positionB/production-results/3OID399FXGWUY0HIR50OUZIH8CWDFI-3R0T90IZ1T1TTS5TSVGXGYV25C0GCB.json,1,standard,TRUE
10499.655,utility tool with holes,NA,94626,3,A,6,unknown,17,/Users/dan/Projects/callab/tunkel/Negation2.0/raw_data/Experiment3/positionA/production-results/336OE47KI29I333Z8FAI49AO3MPVWW-3GD6L00D3TM9YZRHN1P8C7W8X1M1MF.json,1,standard,FALSE
2215.445,cat,NA,98696,4,7,B,known,17,/Users/dan/Projects/callab/tunkel/Negation2.0/raw_data/Experiment3/positionA/production-results/336OE47KI29I333Z8FAI49AO3MPVWW-3GD6L00D3TM9YZRHN1P8C7W8X1M1MF.json,1,standard,FALSE
2620.88,cat,NA,103422,5,8,B,known,17,/Users/dan/Projects/callab/tunkel/Negation2.0/raw_data/Experiment3/positionA/production-results/336OE47KI29I333Z8FAI49AO3MPVWW-3GD6L00D3TM9YZRHN1P8C7W8X1M1MF.json,2,standard,FALSE
2581.295,cat,NA,108609,6,11,B,known,17,/Users/dan/Projects/callab/tunkel/Negation2.0/raw_data/Experiment3/positionA/production-results/336OE47KI29I333Z8FAI49AO3MPVWW-3GD6L00D3TM9YZRHN1P8C7W8X1M1MF.json,3,standard,FALSE
9143.56,doodad with 3 knobs,NA,118608,7,I,9,unknown,17,/Users/dan/Projects/callab/tunkel/Negation2.0/raw_data/Experiment3/positionA/production-results/336OE47KI29I333Z8FAI49AO3MPVWW-3GD6L00D3TM9YZRHN1P8C7W8X1M1MF.json,1,switch,FALSE
3425.45,dice,NA,123388,8,1,H,known,17,/Users/dan/Projects/callab/tunkel/Negation2.0/raw_data/Experiment3/positionA/production-results/336OE47KI29I333Z8FAI49AO3MPVWW-3GD6L00D3TM9YZRHN1P8C7W8X1M1MF.json,1,standard,FALSE
5954.88,sculpture,NA,130698,9,L,3,unknown,17,/Users/dan/Projects/callab/tunkel/Negation2.0/raw_data/Experiment3/positionA/production-results/336OE47KI29I333Z8FAI49AO3MPVWW-3GD6L00D3TM9YZRHN1P8C7W8X1M1MF.json,1,standard,FALSE
7948.295,toy top,NA,139500,10,B,12,unknown,17,/Users/dan/Projects/callab/tunkel/Negation2.0/raw_data/Experiment3/positionA/production-results/336OE47KI29I333Z8FAI49AO3MPVWW-3GD6L00D3TM9YZRHN1P8C7W8X1M1MF.json,1,standard,FALSE
4546.39,pen,NA,144900,11,5,D,known,17,/Users/dan/Projects/callab/tunkel/Negation2.0/raw_data/Experiment3/positionA/production-results/336OE47KI29I333Z8FAI49AO3MPVWW-3GD6L00D3TM9YZRHN1P8C7W8X1M1MF.json,1,standard,FALSE
9942.49,ring with 4 sticks coming out of it,NA,157446,12,G,4,unknown,17,/Users/dan/Projects/callab/tunkel/Negation2.0/raw_data/Experiment3/positionA/production-results/336OE47KI29I333Z8FAI49AO3MPVWW-3GD6L00D3TM9YZRHN1P8C7W8X1M1MF.json,1,standard,FALSE
4976.56,ring with 4 sticks,NA,164028,13,N,4,unknown,17,/Users/dan/Projects/callab/tunkel/Negation2.0/raw_data/Experiment3/positionA/production-results/336OE47KI29I333Z8FAI49AO3MPVWW-3GD6L00D3TM9YZRHN1P8C7W8X1M1MF.json,2,standard,FALSE
4652.675,ring with 4 sticks,NA,170286,14,K,4,unknown,17,/Users/dan/Projects/callab/tunkel/Negation2.0/raw_data/Experiment3/positionA/production-results/336OE47KI29I333Z8FAI49AO3MPVWW-3GD6L00D3TM9YZRHN1P8C7W8X1M1MF.json,3,standard,FALSE
2950.205,ring,NA,175840,15,16,F,known,17,/Users/dan/Projects/callab/tunkel/Negation2.0/raw_data/Experiment3/positionA/production-results/336OE47KI29I333Z8FAI49AO3MPVWW-3GD6L00D3TM9YZRHN1P8C7W8X1M1MF.json,1,switch,FALSE
6736.585,bulb,NA,183432,16,M,10,unknown,17,/Users/dan/Projects/callab/tunkel/Negation2.0/raw_data/Experiment3/positionA/production-results/336OE47KI29I333Z8FAI49AO3MPVWW-3GD6L00D3TM9YZRHN1P8C7W8X1M1MF.json,1,standard,FALSE
2740.395,tree,NA,188777,17,15,J,known,17,/Users/dan/Projects/callab/tunkel/Negation2.0/raw_data/Experiment3/positionA/production-results/336OE47KI29I333Z8FAI49AO3MPVWW-3GD6L00D3TM9YZRHN1P8C7W8X1M1MF.json,1,standard,FALSE
4943.36,chair,NA,195575,18,4,E,known,17,/Users/dan/Projects/callab/tunkel/Negation2.0/raw_data/Experiment3/positionA/production-results/336OE47KI29I333Z8FAI49AO3MPVWW-3GD6L00D3TM9YZRHN1P8C7W8X1M1MF.json,1,standard,FALSE
3630.145,apple,NA,869886,3,10,A,known,18,/Users/dan/Projects/callab/tunkel/Negation2.0/raw_data/Experiment3/positionB/production-results/3WGZLY9VCHBLJL7VJRUIK71VL8J8DW-3XC1O3LBOTBQ11L5P883I00EPFMLT5.json,1,standard,FALSE
5994.475,white hat,NA,877484,4,N,3,unknown,18,/Users/dan/Projects/callab/tunkel/Negation2.0/raw_data/Experiment3/positionB/production-results/3WGZLY9VCHBLJL7VJRUIK71VL8J8DW-3XC1O3LBOTBQ11L5P883I00EPFMLT5.json,1,standard,FALSE
4302.425,white hat,NA,883390,5,C,3,unknown,18,/Users/dan/Projects/callab/tunkel/Negation2.0/raw_data/Experiment3/positionB/production-results/3WGZLY9VCHBLJL7VJRUIK71VL8J8DW-3XC1O3LBOTBQ11L5P883I00EPFMLT5.json,2,standard,FALSE
4026.98,white hat,NA,889270,6,J,3,unknown,18,/Users/dan/Projects/callab/tunkel/Negation2.0/raw_data/Experiment3/positionB/production-results/3WGZLY9VCHBLJL7VJRUIK71VL8J8DW-3XC1O3LBOTBQ11L5P883I00EPFMLT5.json,3,standard,FALSE
2813.715,chair,NA,893188,7,1,E,known,18,/Users/dan/Projects/callab/tunkel/Negation2.0/raw_data/Experiment3/positionB/production-results/3WGZLY9VCHBLJL7VJRUIK71VL8J8DW-3XC1O3LBOTBQ11L5P883I00EPFMLT5.json,1,switch,FALSE
4722.615,vase,NA,899514,8,F,2,unknown,18,/Users/dan/Projects/callab/tunkel/Negation2.0/raw_data/Experiment3/positionB/production-results/3WGZLY9VCHBLJL7VJRUIK71VL8J8DW-3XC1O3LBOTBQ11L5P883I00EPFMLT5.json,1,standard,FALSE
2775.415,fork,NA,905392,9,8,G,known,18,/Users/dan/Projects/callab/tunkel/Negation2.0/raw_data/Experiment3/positionB/production-results/3WGZLY9VCHBLJL7VJRUIK71VL8J8DW-3XC1O3LBOTBQ11L5P883I00EPFMLT5.json,1,standard,FALSE
2254.79,cup,NA,909750,10,3,M,known,18,/Users/dan/Projects/callab/tunkel/Negation2.0/raw_data/Experiment3/positionB/production-results/3WGZLY9VCHBLJL7VJRUIK71VL8J8DW-3XC1O3LBOTBQ11L5P883I00EPFMLT5.json,1,standard,FALSE
5194.19,grenade,NA,917047,11,B,16,unknown,18,/Users/dan/Projects/callab/tunkel/Negation2.0/raw_data/Experiment3/positionB/production-results/3WGZLY9VCHBLJL7VJRUIK71VL8J8DW-3XC1O3LBOTBQ11L5P883I00EPFMLT5.json,1,standard,FALSE
2210.175,pen,NA,920360,12,5,D,known,18,/Users/dan/Projects/callab/tunkel/Negation2.0/raw_data/Experiment3/positionB/production-results/3WGZLY9VCHBLJL7VJRUIK71VL8J8DW-3XC1O3LBOTBQ11L5P883I00EPFMLT5.json,1,standard,FALSE
3315.855,pen,NA,925279,13,15,D,known,18,/Users/dan/Projects/callab/tunkel/Negation2.0/raw_data/Experiment3/positionB/production-results/3WGZLY9VCHBLJL7VJRUIK71VL8J8DW-3XC1O3LBOTBQ11L5P883I00EPFMLT5.json,2,standard,FALSE
3485.13,pen,NA,931867,14,12,D,known,18,/Users/dan/Projects/callab/tunkel/Negation2.0/raw_data/Experiment3/positionB/production-results/3WGZLY9VCHBLJL7VJRUIK71VL8J8DW-3XC1O3LBOTBQ11L5P883I00EPFMLT5.json,3,standard,FALSE
5268.64,bottle,NA,938489,15,K,9,unknown,18,/Users/dan/Projects/callab/tunkel/Negation2.0/raw_data/Experiment3/positionB/production-results/3WGZLY9VCHBLJL7VJRUIK71VL8J8DW-3XC1O3LBOTBQ11L5P883I00EPFMLT5.json,1,switch,FALSE
2610.77,daisy,NA,942453,16,6,L,known,18,/Users/dan/Projects/callab/tunkel/Negation2.0/raw_data/Experiment3/positionB/production-results/3WGZLY9VCHBLJL7VJRUIK71VL8J8DW-3XC1O3LBOTBQ11L5P883I00EPFMLT5.json,1,standard,FALSE
4576.61,flaps,NA,948633,17,I,7,unknown,18,/Users/dan/Projects/callab/tunkel/Negation2.0/raw_data/Experiment3/positionB/production-results/3WGZLY9VCHBLJL7VJRUIK71VL8J8DW-3XC1O3LBOTBQ11L5P883I00EPFMLT5.json,1,standard,FALSE
6454.48,rubix cube,NA,957692,18,D,11,unknown,18,/Users/dan/Projects/callab/tunkel/Negation2.0/raw_data/Experiment3/positionB/production-results/3WGZLY9VCHBLJL7VJRUIK71VL8J8DW-3XC1O3LBOTBQ11L5P883I00EPFMLT5.json,1,standard,FALSE
12091.945,syringe,NA,151685,3,G,10,unknown,19,/Users/dan/Projects/callab/tunkel/Negation2.0/raw_data/Experiment3/positionA/production-results/336OE47KI29I333Z8FAI49AO3MPVWW-3C5W7UE9CGFHO0CAUUAF7G092G1XM3.json,1,standard,FALSE
5047.79,dice,NA,159346,4,2,H,known,19,/Users/dan/Projects/callab/tunkel/Negation2.0/raw_data/Experiment3/positionA/production-results/336OE47KI29I333Z8FAI49AO3MPVWW-3C5W7UE9CGFHO0CAUUAF7G092G1XM3.json,1,standard,FALSE
5425.385,dice,NA,166384,5,11,H,known,19,/Users/dan/Projects/callab/tunkel/Negation2.0/raw_data/Experiment3/positionA/production-results/336OE47KI29I333Z8FAI49AO3MPVWW-3C5W7UE9CGFHO0CAUUAF7G092G1XM3.json,2,standard,FALSE
5874.125,dice,NA,173872,6,3,H,known,19,/Users/dan/Projects/callab/tunkel/Negation2.0/raw_data/Experiment3/positionA/production-results/336OE47KI29I333Z8FAI49AO3MPVWW-3C5W7UE9CGFHO0CAUUAF7G092G1XM3.json,3,standard,FALSE
15730.48,toy,NA,190715,7,C,9,unknown,19,/Users/dan/Projects/callab/tunkel/Negation2.0/raw_data/Experiment3/positionA/production-results/336OE47KI29I333Z8FAI49AO3MPVWW-3C5W7UE9CGFHO0CAUUAF7G092G1XM3.json,1,switch,FALSE
4367.855,mug,NA,197194,8,1,M,known,19,/Users/dan/Projects/callab/tunkel/Negation2.0/raw_data/Experiment3/positionA/production-results/336OE47KI29I333Z8FAI49AO3MPVWW-3C5W7UE9CGFHO0CAUUAF7G092G1XM3.json,1,standard,FALSE
8195.52,art,NA,208502,9,J,5,unknown,19,/Users/dan/Projects/callab/tunkel/Negation2.0/raw_data/Experiment3/positionA/production-results/336OE47KI29I333Z8FAI49AO3MPVWW-3C5W7UE9CGFHO0CAUUAF7G092G1XM3.json,1,standard,FALSE
5258.165,art,NA,215121,10,H,8,unknown,19,/Users/dan/Projects/callab/tunkel/Negation2.0/raw_data/Experiment3/positionA/production-results/336OE47KI29I333Z8FAI49AO3MPVWW-3C5W7UE9CGFHO0CAUUAF7G092G1XM3.json,1,standard,FALSE
3677.07,car,NA,220409,11,12,I,known,19,/Users/dan/Projects/callab/tunkel/Negation2.0/raw_data/Experiment3/positionA/production-results/336OE47KI29I333Z8FAI49AO3MPVWW-3C5W7UE9CGFHO0CAUUAF7G092G1XM3.json,1,standard,FALSE
11628.185,buckle,NA,233899,12,L,6,unknown,19,/Users/dan/Projects/callab/tunkel/Negation2.0/raw_data/Experiment3/positionA/production-results/336OE47KI29I333Z8FAI49AO3MPVWW-3C5W7UE9CGFHO0CAUUAF7G092G1XM3.json,1,standard,FALSE
7540.32,buckle,NA,242552,13,N,6,unknown,19,/Users/dan/Projects/callab/tunkel/Negation2.0/raw_data/Experiment3/positionA/production-results/336OE47KI29I333Z8FAI49AO3MPVWW-3C5W7UE9CGFHO0CAUUAF7G092G1XM3.json,2,standard,FALSE
10876.64,seat buckle,NA,255539,14,A,6,unknown,19,/Users/dan/Projects/callab/tunkel/Negation2.0/raw_data/Experiment3/positionA/production-results/336OE47KI29I333Z8FAI49AO3MPVWW-3C5W7UE9CGFHO0CAUUAF7G092G1XM3.json,3,standard,FALSE
5226.165,ring,NA,263378,15,7,F,known,19,/Users/dan/Projects/callab/tunkel/Negation2.0/raw_data/Experiment3/positionA/production-results/336OE47KI29I333Z8FAI49AO3MPVWW-3C5W7UE9CGFHO0CAUUAF7G092G1XM3.json,1,switch,FALSE
9385.47,puzzle,NA,275377,16,E,15,unknown,19,/Users/dan/Projects/callab/tunkel/Negation2.0/raw_data/Experiment3/positionA/production-results/336OE47KI29I333Z8FAI49AO3MPVWW-3C5W7UE9CGFHO0CAUUAF7G092G1XM3.json,1,standard,FALSE
3987.2,cat,NA,281224,17,4,B,known,19,/Users/dan/Projects/callab/tunkel/Negation2.0/raw_data/Experiment3/positionA/production-results/336OE47KI29I333Z8FAI49AO3MPVWW-3C5W7UE9CGFHO0CAUUAF7G092G1XM3.json,1,standard,FALSE
4502.94,pen,NA,288341,18,6,D,known,19,/Users/dan/Projects/callab/tunkel/Negation2.0/raw_data/Experiment3/positionA/production-results/336OE47KI29I333Z8FAI49AO3MPVWW-3C5W7UE9CGFHO0CAUUAF7G092G1XM3.json,1,standard,FALSE
18034.145,ring,NA,2042267,3,3,F,known,20,/Users/dan/Projects/callab/tunkel/Negation2.0/raw_data/Experiment3/positionB/production-results/3VP28W7DUN9X11MEJNPLLR1KWU6FZJ-3KMS4QQVK3F5YQLM9ORDMW8Y96MFK1.json,1,standard,FALSE
58431.89,A weird helmet thing,NA,2102812,4,M,8,unknown,20,/Users/dan/Projects/callab/tunkel/Negation2.0/raw_data/Experiment3/positionB/production-results/3VP28W7DUN9X11MEJNPLLR1KWU6FZJ-3KMS4QQVK3F5YQLM9ORDMW8Y96MFK1.json,1,standard,FALSE
18869.185,A weird helmet thing again,NA,2123290,5,H,8,unknown,20,/Users/dan/Projects/callab/tunkel/Negation2.0/raw_data/Experiment3/positionB/production-results/3VP28W7DUN9X11MEJNPLLR1KWU6FZJ-3KMS4QQVK3F5YQLM9ORDMW8Y96MFK1.json,2,standard,FALSE
24155.51,A weird helmet thing again for the third time,NA,2149056,6,E,8,unknown,20,/Users/dan/Projects/callab/tunkel/Negation2.0/raw_data/Experiment3/positionB/production-results/3VP28W7DUN9X11MEJNPLLR1KWU6FZJ-3KMS4QQVK3F5YQLM9ORDMW8Y96MFK1.json,3,standard,FALSE
5195.545,Pen,NA,2156114,7,16,D,known,20,/Users/dan/Projects/callab/tunkel/Negation2.0/raw_data/Experiment3/positionB/production-results/3VP28W7DUN9X11MEJNPLLR1KWU6FZJ-3KMS4QQVK3F5YQLM9ORDMW8Y96MFK1.json,1,switch,FALSE
36381.325,One of those spinning toys,NA,2193357,8,A,12,unknown,20,/Users/dan/Projects/callab/tunkel/Negation2.0/raw_data/Experiment3/positionB/production-results/3VP28W7DUN9X11MEJNPLLR1KWU6FZJ-3KMS4QQVK3F5YQLM9ORDMW8Y96MFK1.json,1,standard,FALSE
7342.355,crab,NA,2202808,9,10,N,known,20,/Users/dan/Projects/callab/tunkel/Negation2.0/raw_data/Experiment3/positionB/production-results/3VP28W7DUN9X11MEJNPLLR1KWU6FZJ-3KMS4QQVK3F5YQLM9ORDMW8Y96MFK1.json,1,standard,FALSE
6897.995,butterfly,NA,2211820,10,8,K,known,20,/Users/dan/Projects/callab/tunkel/Negation2.0/raw_data/Experiment3/positionB/production-results/3VP28W7DUN9X11MEJNPLLR1KWU6FZJ-3KMS4QQVK3F5YQLM9ORDMW8Y96MFK1.json,1,standard,FALSE
63362.805,uhh its not furry nor does it have paws,NA,2276296,11,B,6,unknown,20,/Users/dan/Projects/callab/tunkel/Negation2.0/raw_data/Experiment3/positionB/production-results/3VP28W7DUN9X11MEJNPLLR1KWU6FZJ-3KMS4QQVK3F5YQLM9ORDMW8Y96MFK1.json,1,standard,TRUE
7506.85,Vehicle,NA,2284920,12,11,I,known,20,/Users/dan/Projects/callab/tunkel/Negation2.0/raw_data/Experiment3/positionB/production-results/3VP28W7DUN9X11MEJNPLLR1KWU6FZJ-3KMS4QQVK3F5YQLM9ORDMW8Y96MFK1.json,1,standard,FALSE
10197.72,another vehicle,NA,2296985,13,4,I,known,20,/Users/dan/Projects/callab/tunkel/Negation2.0/raw_data/Experiment3/positionB/production-results/3VP28W7DUN9X11MEJNPLLR1KWU6FZJ-3KMS4QQVK3F5YQLM9ORDMW8Y96MFK1.json,2,standard,TRUE
19167.985,alright a vehicle once more,NA,2317515,14,2,I,known,20,/Users/dan/Projects/callab/tunkel/Negation2.0/raw_data/Experiment3/positionB/production-results/3VP28W7DUN9X11MEJNPLLR1KWU6FZJ-3KMS4QQVK3F5YQLM9ORDMW8Y96MFK1.json,3,standard,FALSE
47828.595,two balls with non pointed spikes,NA,2366707,15,J,1,unknown,20,/Users/dan/Projects/callab/tunkel/Negation2.0/raw_data/Experiment3/positionB/production-results/3VP28W7DUN9X11MEJNPLLR1KWU6FZJ-3KMS4QQVK3F5YQLM9ORDMW8Y96MFK1.json,1,switch,FALSE
4923.16,fork,NA,2373492,16,7,G,known,20,/Users/dan/Projects/callab/tunkel/Negation2.0/raw_data/Experiment3/positionB/production-results/3VP28W7DUN9X11MEJNPLLR1KWU6FZJ-3KMS4QQVK3F5YQLM9ORDMW8Y96MFK1.json,1,standard,FALSE
34641.925,some type of toy im assuming,NA,2409245,17,L,9,unknown,20,/Users/dan/Projects/callab/tunkel/Negation2.0/raw_data/Experiment3/positionB/production-results/3VP28W7DUN9X11MEJNPLLR1KWU6FZJ-3KMS4QQVK3F5YQLM9ORDMW8Y96MFK1.json,1,standard,FALSE
31009.555,A weird looking dumbbell,NA,2441871,18,I,5,unknown,20,/Users/dan/Projects/callab/tunkel/Negation2.0/raw_data/Experiment3/positionB/production-results/3VP28W7DUN9X11MEJNPLLR1KWU6FZJ-3KMS4QQVK3F5YQLM9ORDMW8Y96MFK1.json,1,standard,FALSE
4389.08,art,NA,183222,3,E,11,unknown,21,/Users/dan/Projects/callab/tunkel/Negation2.0/raw_data/Experiment3/positionA/production-results/37J05LC5AX8A323EAVR99XA91JDDJL-3E13VNJ1NOKN2G1Q2MRGKEPRGS21IZ.json,1,standard,FALSE
3008.925,cat,NA,188842,4,1,B,known,21,/Users/dan/Projects/callab/tunkel/Negation2.0/raw_data/Experiment3/positionA/production-results/37J05LC5AX8A323EAVR99XA91JDDJL-3E13VNJ1NOKN2G1Q2MRGKEPRGS21IZ.json,1,standard,FALSE
12084.075,cat,NA,202287,5,9,B,known,21,/Users/dan/Projects/callab/tunkel/Negation2.0/raw_data/Experiment3/positionA/production-results/37J05LC5AX8A323EAVR99XA91JDDJL-3E13VNJ1NOKN2G1Q2MRGKEPRGS21IZ.json,2,standard,FALSE
3886.8,cat,NA,208280,6,12,B,known,21,/Users/dan/Projects/callab/tunkel/Negation2.0/raw_data/Experiment3/positionA/production-results/37J05LC5AX8A323EAVR99XA91JDDJL-3E13VNJ1NOKN2G1Q2MRGKEPRGS21IZ.json,3,standard,FALSE
2976.06,art,NA,212119,7,G,7,unknown,21,/Users/dan/Projects/callab/tunkel/Negation2.0/raw_data/Experiment3/positionA/production-results/37J05LC5AX8A323EAVR99XA91JDDJL-3E13VNJ1NOKN2G1Q2MRGKEPRGS21IZ.json,1,switch,FALSE
2706.41,flower,NA,215932,8,8,L,known,21,/Users/dan/Projects/callab/tunkel/Negation2.0/raw_data/Experiment3/positionA/production-results/37J05LC5AX8A323EAVR99XA91JDDJL-3E13VNJ1NOKN2G1Q2MRGKEPRGS21IZ.json,1,standard,FALSE
7148.92,plunger,NA,224441,9,A,10,unknown,21,/Users/dan/Projects/callab/tunkel/Negation2.0/raw_data/Experiment3/positionA/production-results/37J05LC5AX8A323EAVR99XA91JDDJL-3E13VNJ1NOKN2G1Q2MRGKEPRGS21IZ.json,1,standard,FALSE
2303.45,art,NA,228104,10,B,5,unknown,21,/Users/dan/Projects/callab/tunkel/Negation2.0/raw_data/Experiment3/positionA/production-results/37J05LC5AX8A323EAVR99XA91JDDJL-3E13VNJ1NOKN2G1Q2MRGKEPRGS21IZ.json,1,standard,FALSE
1789.965,tree,NA,232004,11,2,J,known,21,/Users/dan/Projects/callab/tunkel/Negation2.0/raw_data/Experiment3/positionA/production-results/37J05LC5AX8A323EAVR99XA91JDDJL-3E13VNJ1NOKN2G1Q2MRGKEPRGS21IZ.json,1,standard,FALSE
5072.375,doughnut,NA,239694,12,F,4,unknown,21,/Users/dan/Projects/callab/tunkel/Negation2.0/raw_data/Experiment3/positionA/production-results/37J05LC5AX8A323EAVR99XA91JDDJL-3E13VNJ1NOKN2G1Q2MRGKEPRGS21IZ.json,1,standard,FALSE
2815.795,doughbut,NA,245117,13,H,4,unknown,21,/Users/dan/Projects/callab/tunkel/Negation2.0/raw_data/Experiment3/positionA/production-results/37J05LC5AX8A323EAVR99XA91JDDJL-3E13VNJ1NOKN2G1Q2MRGKEPRGS21IZ.json,2,standard,FALSE
3912.635,doughnut,NA,250390,14,D,4,unknown,21,/Users/dan/Projects/callab/tunkel/Negation2.0/raw_data/Experiment3/positionA/production-results/37J05LC5AX8A323EAVR99XA91JDDJL-3E13VNJ1NOKN2G1Q2MRGKEPRGS21IZ.json,3,standard,FALSE
2364.195,crab,NA,255360,15,3,N,known,21,/Users/dan/Projects/callab/tunkel/Negation2.0/raw_data/Experiment3/positionA/production-results/37J05LC5AX8A323EAVR99XA91JDDJL-3E13VNJ1NOKN2G1Q2MRGKEPRGS21IZ.json,1,switch,FALSE
6827.8,fan,NA,263780,16,M,6,unknown,21,/Users/dan/Projects/callab/tunkel/Negation2.0/raw_data/Experiment3/positionA/production-results/37J05LC5AX8A323EAVR99XA91JDDJL-3E13VNJ1NOKN2G1Q2MRGKEPRGS21IZ.json,1,standard,FALSE
3330.77,shoe,NA,268470,17,16,C,known,21,/Users/dan/Projects/callab/tunkel/Negation2.0/raw_data/Experiment3/positionA/production-results/37J05LC5AX8A323EAVR99XA91JDDJL-3E13VNJ1NOKN2G1Q2MRGKEPRGS21IZ.json,1,standard,FALSE
2150.2,car,NA,272229,18,4,I,known,21,/Users/dan/Projects/callab/tunkel/Negation2.0/raw_data/Experiment3/positionA/production-results/37J05LC5AX8A323EAVR99XA91JDDJL-3E13VNJ1NOKN2G1Q2MRGKEPRGS21IZ.json,1,standard,FALSE
6169.07,ring,NA,107423,3,6,F,known,22,/Users/dan/Projects/callab/tunkel/Negation2.0/raw_data/Experiment3/positionB/production-results/3WGZLY9VCHBLJL7VJRUIK71VL8J8DW-3ZOTGHDK5J0XSMBND0J50C8MI1ESO5.json,1,standard,FALSE
5399.81,not flower,NA,113928,4,L,3,unknown,22,/Users/dan/Projects/callab/tunkel/Negation2.0/raw_data/Experiment3/positionB/production-results/3WGZLY9VCHBLJL7VJRUIK71VL8J8DW-3ZOTGHDK5J0XSMBND0J50C8MI1ESO5.json,1,standard,TRUE
3013.44,not cat,NA,119548,5,B,3,unknown,22,/Users/dan/Projects/callab/tunkel/Negation2.0/raw_data/Experiment3/positionB/production-results/3WGZLY9VCHBLJL7VJRUIK71VL8J8DW-3ZOTGHDK5J0XSMBND0J50C8MI1ESO5.json,2,standard,TRUE
8110.025,not crab,NA,130263,6,N,3,unknown,22,/Users/dan/Projects/callab/tunkel/Negation2.0/raw_data/Experiment3/positionB/production-results/3WGZLY9VCHBLJL7VJRUIK71VL8J8DW-3ZOTGHDK5J0XSMBND0J50C8MI1ESO5.json,3,standard,TRUE
2587.89,dice,NA,133956,7,4,H,known,22,/Users/dan/Projects/callab/tunkel/Negation2.0/raw_data/Experiment3/positionB/production-results/3WGZLY9VCHBLJL7VJRUIK71VL8J8DW-3ZOTGHDK5J0XSMBND0J50C8MI1ESO5.json,1,switch,FALSE
4065.845,blocks,NA,138875,8,A,15,unknown,22,/Users/dan/Projects/callab/tunkel/Negation2.0/raw_data/Experiment3/positionB/production-results/3WGZLY9VCHBLJL7VJRUIK71VL8J8DW-3ZOTGHDK5J0XSMBND0J50C8MI1ESO5.json,1,standard,FALSE
2382.95,shoe,NA,142363,9,2,C,known,22,/Users/dan/Projects/callab/tunkel/Negation2.0/raw_data/Experiment3/positionB/production-results/3WGZLY9VCHBLJL7VJRUIK71VL8J8DW-3ZOTGHDK5J0XSMBND0J50C8MI1ESO5.json,1,standard,FALSE
1896.365,fork,NA,145364,10,3,G,known,22,/Users/dan/Projects/callab/tunkel/Negation2.0/raw_data/Experiment3/positionB/production-results/3WGZLY9VCHBLJL7VJRUIK71VL8J8DW-3ZOTGHDK5J0XSMBND0J50C8MI1ESO5.json,1,standard,FALSE
5206.345,balls,NA,151424,11,D,1,unknown,22,/Users/dan/Projects/callab/tunkel/Negation2.0/raw_data/Experiment3/positionB/production-results/3WGZLY9VCHBLJL7VJRUIK71VL8J8DW-3ZOTGHDK5J0XSMBND0J50C8MI1ESO5.json,1,standard,FALSE
1440.26,cup,NA,153728,12,11,M,known,22,/Users/dan/Projects/callab/tunkel/Negation2.0/raw_data/Experiment3/positionB/production-results/3WGZLY9VCHBLJL7VJRUIK71VL8J8DW-3ZOTGHDK5J0XSMBND0J50C8MI1ESO5.json,1,standard,FALSE
1678.91,cup,NA,156762,13,16,M,known,22,/Users/dan/Projects/callab/tunkel/Negation2.0/raw_data/Experiment3/positionB/production-results/3WGZLY9VCHBLJL7VJRUIK71VL8J8DW-3ZOTGHDK5J0XSMBND0J50C8MI1ESO5.json,2,standard,FALSE
1853.06,cup,NA,161719,14,12,M,known,22,/Users/dan/Projects/callab/tunkel/Negation2.0/raw_data/Experiment3/positionB/production-results/3WGZLY9VCHBLJL7VJRUIK71VL8J8DW-3ZOTGHDK5J0XSMBND0J50C8MI1ESO5.json,3,standard,FALSE
4555.24,not tree,NA,168380,15,J,5,unknown,22,/Users/dan/Projects/callab/tunkel/Negation2.0/raw_data/Experiment3/positionB/production-results/3WGZLY9VCHBLJL7VJRUIK71VL8J8DW-3ZOTGHDK5J0XSMBND0J50C8MI1ESO5.json,1,switch,TRUE
4083.655,butterfly,NA,174570,16,8,K,known,22,/Users/dan/Projects/callab/tunkel/Negation2.0/raw_data/Experiment3/positionB/production-results/3WGZLY9VCHBLJL7VJRUIK71VL8J8DW-3ZOTGHDK5J0XSMBND0J50C8MI1ESO5.json,1,standard,FALSE
4224.655,not chair,NA,181900,17,E,7,unknown,22,/Users/dan/Projects/callab/tunkel/Negation2.0/raw_data/Experiment3/positionB/production-results/3WGZLY9VCHBLJL7VJRUIK71VL8J8DW-3ZOTGHDK5J0XSMBND0J50C8MI1ESO5.json,1,standard,TRUE
3525.45,not cup,NA,188030,18,M,9,unknown,22,/Users/dan/Projects/callab/tunkel/Negation2.0/raw_data/Experiment3/positionB/production-results/3WGZLY9VCHBLJL7VJRUIK71VL8J8DW-3ZOTGHDK5J0XSMBND0J50C8MI1ESO5.json,1,standard,TRUE
10499.105,not car,NA,300483,3,I,7,unknown,23,/Users/dan/Projects/callab/tunkel/Negation2.0/raw_data/Experiment3/positionA/production-results/37J05LC5AX8A323EAVR99XA91JDDJL-35L9RVQFCP73FIH4YSJFV4T9RCKUHY.json,1,standard,TRUE
5472.035,butterfly,NA,308561,4,3,K,known,23,/Users/dan/Projects/callab/tunkel/Negation2.0/raw_data/Experiment3/positionA/production-results/37J05LC5AX8A323EAVR99XA91JDDJL-35L9RVQFCP73FIH4YSJFV4T9RCKUHY.json,1,standard,FALSE
7471.66,butterfly,NA,316889,5,9,K,known,23,/Users/dan/Projects/callab/tunkel/Negation2.0/raw_data/Experiment3/positionA/production-results/37J05LC5AX8A323EAVR99XA91JDDJL-35L9RVQFCP73FIH4YSJFV4T9RCKUHY.json,2,standard,FALSE
6571.975,butterfly,NA,324817,6,12,K,known,23,/Users/dan/Projects/callab/tunkel/Negation2.0/raw_data/Experiment3/positionA/production-results/37J05LC5AX8A323EAVR99XA91JDDJL-35L9RVQFCP73FIH4YSJFV4T9RCKUHY.json,3,standard,FALSE
7749.7,not ring,NA,334673,7,F,5,unknown,23,/Users/dan/Projects/callab/tunkel/Negation2.0/raw_data/Experiment3/positionA/production-results/37J05LC5AX8A323EAVR99XA91JDDJL-35L9RVQFCP73FIH4YSJFV4T9RCKUHY.json,1,switch,TRUE
3818.62,cat,NA,341097,8,10,B,known,23,/Users/dan/Projects/callab/tunkel/Negation2.0/raw_data/Experiment3/positionA/production-results/37J05LC5AX8A323EAVR99XA91JDDJL-35L9RVQFCP73FIH4YSJFV4T9RCKUHY.json,1,standard,FALSE
9981.785,weird object,NA,354187,9,D,6,unknown,23,/Users/dan/Projects/callab/tunkel/Negation2.0/raw_data/Experiment3/positionA/production-results/37J05LC5AX8A323EAVR99XA91JDDJL-35L9RVQFCP73FIH4YSJFV4T9RCKUHY.json,1,standard,FALSE
7881.245,blimp,NA,363424,10,K,16,unknown,23,/Users/dan/Projects/callab/tunkel/Negation2.0/raw_data/Experiment3/positionA/production-results/37J05LC5AX8A323EAVR99XA91JDDJL-35L9RVQFCP73FIH4YSJFV4T9RCKUHY.json,1,standard,FALSE
5807.08,flower,NA,372337,11,15,L,known,23,/Users/dan/Projects/callab/tunkel/Negation2.0/raw_data/Experiment3/positionA/production-results/37J05LC5AX8A323EAVR99XA91JDDJL-35L9RVQFCP73FIH4YSJFV4T9RCKUHY.json,1,standard,FALSE
9877.04,vase,NA,383321,12,N,2,unknown,23,/Users/dan/Projects/callab/tunkel/Negation2.0/raw_data/Experiment3/positionA/production-results/37J05LC5AX8A323EAVR99XA91JDDJL-35L9RVQFCP73FIH4YSJFV4T9RCKUHY.json,1,standard,FALSE
4439.08,vase,NA,388617,13,H,2,unknown,23,/Users/dan/Projects/callab/tunkel/Negation2.0/raw_data/Experiment3/positionA/production-results/37J05LC5AX8A323EAVR99XA91JDDJL-35L9RVQFCP73FIH4YSJFV4T9RCKUHY.json,2,standard,FALSE
3756.505,vase,NA,394480,14,C,2,unknown,23,/Users/dan/Projects/callab/tunkel/Negation2.0/raw_data/Experiment3/positionA/production-results/37J05LC5AX8A323EAVR99XA91JDDJL-35L9RVQFCP73FIH4YSJFV4T9RCKUHY.json,3,standard,FALSE
4705.79,apple,NA,400793,15,4,A,known,23,/Users/dan/Projects/callab/tunkel/Negation2.0/raw_data/Experiment3/positionA/production-results/37J05LC5AX8A323EAVR99XA91JDDJL-35L9RVQFCP73FIH4YSJFV4T9RCKUHY.json,1,switch,FALSE
6747.32,bumpy,NA,408896,16,J,1,unknown,23,/Users/dan/Projects/callab/tunkel/Negation2.0/raw_data/Experiment3/positionA/production-results/37J05LC5AX8A323EAVR99XA91JDDJL-35L9RVQFCP73FIH4YSJFV4T9RCKUHY.json,1,standard,FALSE
4685.695,cup,NA,415688,17,8,M,known,23,/Users/dan/Projects/callab/tunkel/Negation2.0/raw_data/Experiment3/positionA/production-results/37J05LC5AX8A323EAVR99XA91JDDJL-35L9RVQFCP73FIH4YSJFV4T9RCKUHY.json,1,standard,FALSE
6413.165,fork,NA,423208,18,2,G,known,23,/Users/dan/Projects/callab/tunkel/Negation2.0/raw_data/Experiment3/positionA/production-results/37J05LC5AX8A323EAVR99XA91JDDJL-35L9RVQFCP73FIH4YSJFV4T9RCKUHY.json,1,standard,FALSE
12700.615,tastes good with butter,NA,130006,3,16,N,known,24,/Users/dan/Projects/callab/tunkel/Negation2.0/raw_data/Experiment3/positionB/production-results/3OID399FXGWUY0HIR50OUZIH8CWDFI-3TEM0PF1Q6M6NG0MEPM5FCQ4JVO0DT.json,1,standard,FALSE
9719.845,toy,NA,140581,4,J,11,unknown,24,/Users/dan/Projects/callab/tunkel/Negation2.0/raw_data/Experiment3/positionB/production-results/3OID399FXGWUY0HIR50OUZIH8CWDFI-3TEM0PF1Q6M6NG0MEPM5FCQ4JVO0DT.json,1,standard,FALSE
10054.715,same toy,NA,153741,5,E,11,unknown,24,/Users/dan/Projects/callab/tunkel/Negation2.0/raw_data/Experiment3/positionB/production-results/3OID399FXGWUY0HIR50OUZIH8CWDFI-3TEM0PF1Q6M6NG0MEPM5FCQ4JVO0DT.json,2,standard,FALSE
16236.17,same toy again like a poor kids christmas,NA,171333,6,G,11,unknown,24,/Users/dan/Projects/callab/tunkel/Negation2.0/raw_data/Experiment3/positionB/production-results/3OID399FXGWUY0HIR50OUZIH8CWDFI-3TEM0PF1Q6M6NG0MEPM5FCQ4JVO0DT.json,3,standard,FALSE
8696.295,to drink milk out of,NA,181885,7,8,M,known,24,/Users/dan/Projects/callab/tunkel/Negation2.0/raw_data/Experiment3/positionB/production-results/3OID399FXGWUY0HIR50OUZIH8CWDFI-3TEM0PF1Q6M6NG0MEPM5FCQ4JVO0DT.json,1,switch,FALSE
16335.85,no idea what it is but it doesnt meow,NA,201325,8,B,4,unknown,24,/Users/dan/Projects/callab/tunkel/Negation2.0/raw_data/Experiment3/positionB/production-results/3OID399FXGWUY0HIR50OUZIH8CWDFI-3TEM0PF1Q6M6NG0MEPM5FCQ4JVO0DT.json,1,standard,TRUE
5326.67,gambling,NA,208757,9,9,H,known,24,/Users/dan/Projects/callab/tunkel/Negation2.0/raw_data/Experiment3/positionB/production-results/3OID399FXGWUY0HIR50OUZIH8CWDFI-3TEM0PF1Q6M6NG0MEPM5FCQ4JVO0DT.json,1,standard,FALSE
7389.835,spread your wings,NA,219253,10,11,K,known,24,/Users/dan/Projects/callab/tunkel/Negation2.0/raw_data/Experiment3/positionB/production-results/3OID399FXGWUY0HIR50OUZIH8CWDFI-3TEM0PF1Q6M6NG0MEPM5FCQ4JVO0DT.json,1,standard,FALSE
10786.53,better toy than before,NA,231144,11,L,1,unknown,24,/Users/dan/Projects/callab/tunkel/Negation2.0/raw_data/Experiment3/positionB/production-results/3OID399FXGWUY0HIR50OUZIH8CWDFI-3TEM0PF1Q6M6NG0MEPM5FCQ4JVO0DT.json,1,standard,FALSE
13839.96,single moms wet dream,NA,246589,12,6,I,known,24,/Users/dan/Projects/callab/tunkel/Negation2.0/raw_data/Experiment3/positionB/production-results/3OID399FXGWUY0HIR50OUZIH8CWDFI-3TEM0PF1Q6M6NG0MEPM5FCQ4JVO0DT.json,1,standard,FALSE
6634.675,vroom vroom,NA,254613,13,12,I,known,24,/Users/dan/Projects/callab/tunkel/Negation2.0/raw_data/Experiment3/positionB/production-results/3OID399FXGWUY0HIR50OUZIH8CWDFI-3TEM0PF1Q6M6NG0MEPM5FCQ4JVO0DT.json,2,standard,FALSE
8626.36,number one killer of teens,NA,264101,14,3,I,known,24,/Users/dan/Projects/callab/tunkel/Negation2.0/raw_data/Experiment3/positionB/production-results/3OID399FXGWUY0HIR50OUZIH8CWDFI-3TEM0PF1Q6M6NG0MEPM5FCQ4JVO0DT.json,3,standard,FALSE
8564.89,toy blocks,NA,274021,15,C,15,unknown,24,/Users/dan/Projects/callab/tunkel/Negation2.0/raw_data/Experiment3/positionB/production-results/3OID399FXGWUY0HIR50OUZIH8CWDFI-3TEM0PF1Q6M6NG0MEPM5FCQ4JVO0DT.json,1,switch,FALSE
4208.85,marry me,NA,279085,16,5,F,known,24,/Users/dan/Projects/callab/tunkel/Negation2.0/raw_data/Experiment3/positionB/production-results/3OID399FXGWUY0HIR50OUZIH8CWDFI-3TEM0PF1Q6M6NG0MEPM5FCQ4JVO0DT.json,1,standard,FALSE
10485.405,bro what is this,NA,290925,17,A,7,unknown,24,/Users/dan/Projects/callab/tunkel/Negation2.0/raw_data/Experiment3/positionB/production-results/3OID399FXGWUY0HIR50OUZIH8CWDFI-3TEM0PF1Q6M6NG0MEPM5FCQ4JVO0DT.json,1,standard,FALSE
12813.73,half of some kind of plunger maybe,NA,305093,18,I,10,unknown,24,/Users/dan/Projects/callab/tunkel/Negation2.0/raw_data/Experiment3/positionB/production-results/3OID399FXGWUY0HIR50OUZIH8CWDFI-3TEM0PF1Q6M6NG0MEPM5FCQ4JVO0DT.json,1,standard,FALSE
1455.125,chair,NA,81537,3,9,E,known,25,/Users/dan/Projects/callab/tunkel/Negation2.0/raw_data/Experiment3/positionB/production-results/3OID399FXGWUY0HIR50OUZIH8CWDFI-3A7Y0R2P2PDRNS6PRXXNRO8SYM5XJY.json,1,standard,FALSE
8272.175,squiggly row row blocks,NA,91672,4,N,15,unknown,25,/Users/dan/Projects/callab/tunkel/Negation2.0/raw_data/Experiment3/positionB/production-results/3OID399FXGWUY0HIR50OUZIH8CWDFI-3A7Y0R2P2PDRNS6PRXXNRO8SYM5XJY.json,1,standard,FALSE
17329.66,multicolored snake looking thing,NA,110620,5,G,15,unknown,25,/Users/dan/Projects/callab/tunkel/Negation2.0/raw_data/Experiment3/positionB/production-results/3OID399FXGWUY0HIR50OUZIH8CWDFI-3A7Y0R2P2PDRNS6PRXXNRO8SYM5XJY.json,2,standard,FALSE
14454.505,zig zag shape,NA,128188,6,D,15,unknown,25,/Users/dan/Projects/callab/tunkel/Negation2.0/raw_data/Experiment3/positionB/production-results/3OID399FXGWUY0HIR50OUZIH8CWDFI-3A7Y0R2P2PDRNS6PRXXNRO8SYM5XJY.json,3,standard,FALSE
2757.415,cup,NA,132305,7,2,M,known,25,/Users/dan/Projects/callab/tunkel/Negation2.0/raw_data/Experiment3/positionB/production-results/3OID399FXGWUY0HIR50OUZIH8CWDFI-3A7Y0R2P2PDRNS6PRXXNRO8SYM5XJY.json,1,switch,FALSE
7274.315,two balls with suction cups,NA,141448,8,H,1,unknown,25,/Users/dan/Projects/callab/tunkel/Negation2.0/raw_data/Experiment3/positionB/production-results/3OID399FXGWUY0HIR50OUZIH8CWDFI-3A7Y0R2P2PDRNS6PRXXNRO8SYM5XJY.json,1,standard,FALSE
2315.82,shoe,NA,144872,9,16,C,known,25,/Users/dan/Projects/callab/tunkel/Negation2.0/raw_data/Experiment3/positionB/production-results/3OID399FXGWUY0HIR50OUZIH8CWDFI-3A7Y0R2P2PDRNS6PRXXNRO8SYM5XJY.json,1,standard,FALSE
2290.435,butterfly,NA,148525,10,15,K,known,25,/Users/dan/Projects/callab/tunkel/Negation2.0/raw_data/Experiment3/positionB/production-results/3OID399FXGWUY0HIR50OUZIH8CWDFI-3A7Y0R2P2PDRNS6PRXXNRO8SYM5XJY.json,1,standard,FALSE
9726.735,white thing with 4pints,NA,161364,11,J,3,unknown,25,/Users/dan/Projects/callab/tunkel/Negation2.0/raw_data/Experiment3/positionB/production-results/3OID399FXGWUY0HIR50OUZIH8CWDFI-3A7Y0R2P2PDRNS6PRXXNRO8SYM5XJY.json,1,standard,FALSE
2897.945,sunflower,NA,167379,12,6,L,known,25,/Users/dan/Projects/callab/tunkel/Negation2.0/raw_data/Experiment3/positionB/production-results/3OID399FXGWUY0HIR50OUZIH8CWDFI-3A7Y0R2P2PDRNS6PRXXNRO8SYM5XJY.json,1,standard,FALSE
5320.215,flower,NA,173819,13,4,L,known,25,/Users/dan/Projects/callab/tunkel/Negation2.0/raw_data/Experiment3/positionB/production-results/3OID399FXGWUY0HIR50OUZIH8CWDFI-3A7Y0R2P2PDRNS6PRXXNRO8SYM5XJY.json,2,standard,FALSE
7713.345,plant,NA,183646,14,8,L,known,25,/Users/dan/Projects/callab/tunkel/Negation2.0/raw_data/Experiment3/positionB/production-results/3OID399FXGWUY0HIR50OUZIH8CWDFI-3A7Y0R2P2PDRNS6PRXXNRO8SYM5XJY.json,3,standard,FALSE
22412.51,object that is flat on the ends and curled up in the middle,NA,208173,15,A,7,unknown,25,/Users/dan/Projects/callab/tunkel/Negation2.0/raw_data/Experiment3/positionB/production-results/3OID399FXGWUY0HIR50OUZIH8CWDFI-3A7Y0R2P2PDRNS6PRXXNRO8SYM5XJY.json,1,switch,FALSE
1650.415,car,NA,212938,16,12,I,known,25,/Users/dan/Projects/callab/tunkel/Negation2.0/raw_data/Experiment3/positionB/production-results/3OID399FXGWUY0HIR50OUZIH8CWDFI-3A7Y0R2P2PDRNS6PRXXNRO8SYM5XJY.json,1,standard,FALSE
8125.73,shape with multiple sides,NA,221932,17,F,11,unknown,25,/Users/dan/Projects/callab/tunkel/Negation2.0/raw_data/Experiment3/positionB/production-results/3OID399FXGWUY0HIR50OUZIH8CWDFI-3A7Y0R2P2PDRNS6PRXXNRO8SYM5XJY.json,1,standard,FALSE
7082.915,looks like a turkey baster,NA,230129,18,L,10,unknown,25,/Users/dan/Projects/callab/tunkel/Negation2.0/raw_data/Experiment3/positionB/production-results/3OID399FXGWUY0HIR50OUZIH8CWDFI-3A7Y0R2P2PDRNS6PRXXNRO8SYM5XJY.json,1,standard,FALSE
16619,earphone,NA,276837,3,E,9,unknown,26,/Users/dan/Projects/callab/tunkel/Negation2.0/raw_data/Experiment3/positionA/production-results/336OE47KI29I333Z8FAI49AO3MPVWW-308XBLVESJT18DM1U6EE4I3RP0CBRW.json,1,standard,FALSE
39467,fork,NA,317666,4,5,G,known,26,/Users/dan/Projects/callab/tunkel/Negation2.0/raw_data/Experiment3/positionA/production-results/336OE47KI29I333Z8FAI49AO3MPVWW-308XBLVESJT18DM1U6EE4I3RP0CBRW.json,1,standard,FALSE
5968,fork,NA,324996,5,11,G,known,26,/Users/dan/Projects/callab/tunkel/Negation2.0/raw_data/Experiment3/positionA/production-results/336OE47KI29I333Z8FAI49AO3MPVWW-308XBLVESJT18DM1U6EE4I3RP0CBRW.json,2,standard,FALSE
6703,fork,NA,332557,6,15,G,known,26,/Users/dan/Projects/callab/tunkel/Negation2.0/raw_data/Experiment3/positionA/production-results/336OE47KI29I333Z8FAI49AO3MPVWW-308XBLVESJT18DM1U6EE4I3RP0CBRW.json,3,standard,FALSE
15654,bad,NA,349572,7,B,7,unknown,26,/Users/dan/Projects/callab/tunkel/Negation2.0/raw_data/Experiment3/positionA/production-results/336OE47KI29I333Z8FAI49AO3MPVWW-308XBLVESJT18DM1U6EE4I3RP0CBRW.json,1,switch,FALSE
4184,bad,NA,356371,8,2,M,known,26,/Users/dan/Projects/callab/tunkel/Negation2.0/raw_data/Experiment3/positionA/production-results/336OE47KI29I333Z8FAI49AO3MPVWW-308XBLVESJT18DM1U6EE4I3RP0CBRW.json,1,standard,FALSE
23687,reptile,NA,380925,9,J,10,unknown,26,/Users/dan/Projects/callab/tunkel/Negation2.0/raw_data/Experiment3/positionA/production-results/336OE47KI29I333Z8FAI49AO3MPVWW-308XBLVESJT18DM1U6EE4I3RP0CBRW.json,1,standard,FALSE
26214,saw,NA,408996,10,G,1,unknown,26,/Users/dan/Projects/callab/tunkel/Negation2.0/raw_data/Experiment3/positionA/production-results/336OE47KI29I333Z8FAI49AO3MPVWW-308XBLVESJT18DM1U6EE4I3RP0CBRW.json,1,standard,FALSE
40336,shoe,NA,450444,11,16,C,known,26,/Users/dan/Projects/callab/tunkel/Negation2.0/raw_data/Experiment3/positionA/production-results/336OE47KI29I333Z8FAI49AO3MPVWW-308XBLVESJT18DM1U6EE4I3RP0CBRW.json,1,standard,FALSE
70546,monochrome,NA,521850,12,K,8,unknown,26,/Users/dan/Projects/callab/tunkel/Negation2.0/raw_data/Experiment3/positionA/production-results/336OE47KI29I333Z8FAI49AO3MPVWW-308XBLVESJT18DM1U6EE4I3RP0CBRW.json,1,standard,FALSE
10248,monochrome,NA,532962,13,L,8,unknown,26,/Users/dan/Projects/callab/tunkel/Negation2.0/raw_data/Experiment3/positionA/production-results/336OE47KI29I333Z8FAI49AO3MPVWW-308XBLVESJT18DM1U6EE4I3RP0CBRW.json,2,standard,FALSE
12194,monochrome,NA,547268,14,N,8,unknown,26,/Users/dan/Projects/callab/tunkel/Negation2.0/raw_data/Experiment3/positionA/production-results/336OE47KI29I333Z8FAI49AO3MPVWW-308XBLVESJT18DM1U6EE4I3RP0CBRW.json,3,standard,FALSE
5242,apple,NA,554620,15,3,A,known,26,/Users/dan/Projects/callab/tunkel/Negation2.0/raw_data/Experiment3/positionA/production-results/336OE47KI29I333Z8FAI49AO3MPVWW-308XBLVESJT18DM1U6EE4I3RP0CBRW.json,1,switch,FALSE
38842,gun barrel,NA,594570,16,D,6,unknown,26,/Users/dan/Projects/callab/tunkel/Negation2.0/raw_data/Experiment3/positionA/production-results/336OE47KI29I333Z8FAI49AO3MPVWW-308XBLVESJT18DM1U6EE4I3RP0CBRW.json,1,standard,FALSE
20004,dice,NA,616435,17,12,H,known,26,/Users/dan/Projects/callab/tunkel/Negation2.0/raw_data/Experiment3/positionA/production-results/336OE47KI29I333Z8FAI49AO3MPVWW-308XBLVESJT18DM1U6EE4I3RP0CBRW.json,1,standard,FALSE
4819,car,NA,624364,18,8,I,known,26,/Users/dan/Projects/callab/tunkel/Negation2.0/raw_data/Experiment3/positionA/production-results/336OE47KI29I333Z8FAI49AO3MPVWW-308XBLVESJT18DM1U6EE4I3RP0CBRW.json,1,standard,FALSE
15158.535,dumbell looking,NA,178138,3,G,5,unknown,27,/Users/dan/Projects/callab/tunkel/Negation2.0/raw_data/Experiment3/positionA/production-results/37J05LC5AX8A323EAVR99XA91JDDJL-37UQDCYH6YK6Z80SQ9780D6YRG17V2.json,1,standard,FALSE
5014.79,car,NA,186259,4,11,I,known,27,/Users/dan/Projects/callab/tunkel/Negation2.0/raw_data/Experiment3/positionA/production-results/37J05LC5AX8A323EAVR99XA91JDDJL-37UQDCYH6YK6Z80SQ9780D6YRG17V2.json,1,standard,FALSE
4717.105,car,NA,193581,5,15,I,known,27,/Users/dan/Projects/callab/tunkel/Negation2.0/raw_data/Experiment3/positionA/production-results/37J05LC5AX8A323EAVR99XA91JDDJL-37UQDCYH6YK6Z80SQ9780D6YRG17V2.json,2,standard,FALSE
6445.96,car,NA,202632,6,8,I,known,27,/Users/dan/Projects/callab/tunkel/Negation2.0/raw_data/Experiment3/positionA/production-results/37J05LC5AX8A323EAVR99XA91JDDJL-37UQDCYH6YK6Z80SQ9780D6YRG17V2.json,3,standard,FALSE
6905.735,plunger,NA,212149,7,L,10,unknown,27,/Users/dan/Projects/callab/tunkel/Negation2.0/raw_data/Experiment3/positionA/production-results/37J05LC5AX8A323EAVR99XA91JDDJL-37UQDCYH6YK6Z80SQ9780D6YRG17V2.json,1,switch,FALSE
6836.225,coffee cup,NA,220090,8,7,M,known,27,/Users/dan/Projects/callab/tunkel/Negation2.0/raw_data/Experiment3/positionA/production-results/37J05LC5AX8A323EAVR99XA91JDDJL-37UQDCYH6YK6Z80SQ9780D6YRG17V2.json,1,standard,FALSE
10391.675,spinning top,NA,231837,9,F,12,unknown,27,/Users/dan/Projects/callab/tunkel/Negation2.0/raw_data/Experiment3/positionA/production-results/37J05LC5AX8A323EAVR99XA91JDDJL-37UQDCYH6YK6Z80SQ9780D6YRG17V2.json,1,standard,FALSE
9254.99,kong toy,NA,241947,10,I,1,unknown,27,/Users/dan/Projects/callab/tunkel/Negation2.0/raw_data/Experiment3/positionA/production-results/37J05LC5AX8A323EAVR99XA91JDDJL-37UQDCYH6YK6Z80SQ9780D6YRG17V2.json,1,standard,FALSE
5708.29,butterfly,NA,250260,11,3,K,known,27,/Users/dan/Projects/callab/tunkel/Negation2.0/raw_data/Experiment3/positionA/production-results/37J05LC5AX8A323EAVR99XA91JDDJL-37UQDCYH6YK6Z80SQ9780D6YRG17V2.json,1,standard,FALSE
27417.8,toy looking thing,NA,278534,12,H,9,unknown,27,/Users/dan/Projects/callab/tunkel/Negation2.0/raw_data/Experiment3/positionA/production-results/37J05LC5AX8A323EAVR99XA91JDDJL-37UQDCYH6YK6Z80SQ9780D6YRG17V2.json,1,standard,FALSE
22389.735,Roller and scoop,NA,302035,13,J,9,unknown,27,/Users/dan/Projects/callab/tunkel/Negation2.0/raw_data/Experiment3/positionA/production-results/37J05LC5AX8A323EAVR99XA91JDDJL-37UQDCYH6YK6Z80SQ9780D6YRG17V2.json,2,standard,FALSE
7284.905,Roller and scoop,NA,310675,14,N,9,unknown,27,/Users/dan/Projects/callab/tunkel/Negation2.0/raw_data/Experiment3/positionA/production-results/37J05LC5AX8A323EAVR99XA91JDDJL-37UQDCYH6YK6Z80SQ9780D6YRG17V2.json,3,standard,FALSE
3730.46,pen,NA,315761,15,4,D,known,27,/Users/dan/Projects/callab/tunkel/Negation2.0/raw_data/Experiment3/positionA/production-results/37J05LC5AX8A323EAVR99XA91JDDJL-37UQDCYH6YK6Z80SQ9780D6YRG17V2.json,1,switch,FALSE
