rt,response,locator,time_elapsed,trial,distractor,target,type,id,file
15011.000000000407,bird,NA,259488,1,practiceDistractor1,practiceTarget1,practice,36,/Users/dan/Projects/callab/tunkel/Negation2.0/Experiment2/contrastA/production-results/338GLSUI43000P00OVVDPY4H9ZUSFJ-352YTHGROW24YKNPJMSXI0VFP4T4HP.json
12975.00000000035,aeroplane,NA,273584,2,practiceDistractor2,practiceTarget2,practice,36,/Users/dan/Projects/callab/tunkel/Negation2.0/Experiment2/contrastA/production-results/338GLSUI43000P00OVVDPY4H9ZUSFJ-352YTHGROW24YKNPJMSXI0VFP4T4HP.json
6063.000000000116,car,NA,287328,3,11,I,known,36,/Users/dan/Projects/callab/tunkel/Negation2.0/Experiment2/contrastA/production-results/338GLSUI43000P00OVVDPY4H9ZUSFJ-352YTHGROW24YKNPJMSXI0VFP4T4HP.json
10951.999999999302,art,NA,300896,4,B,1,unknown,36,/Users/dan/Projects/callab/tunkel/Negation2.0/Experiment2/contrastA/production-results/338GLSUI43000P00OVVDPY4H9ZUSFJ-352YTHGROW24YKNPJMSXI0VFP4T4HP.json
34870.00000000076,screw drive,NA,337631,5,A,10,unknown,36,/Users/dan/Projects/callab/tunkel/Negation2.0/Experiment2/contrastA/production-results/338GLSUI43000P00OVVDPY4H9ZUSFJ-352YTHGROW24YKNPJMSXI0VFP4T4HP.json
7406.9999999993015,cup,NA,347655,6,5,M,known,36,/Users/dan/Projects/callab/tunkel/Negation2.0/Experiment2/contrastA/production-results/338GLSUI43000P00OVVDPY4H9ZUSFJ-352YTHGROW24YKNPJMSXI0VFP4T4HP.json
6476.999999998952,shoe,NA,355999,7,9,C,known,36,/Users/dan/Projects/callab/tunkel/Negation2.0/Experiment2/contrastA/production-results/338GLSUI43000P00OVVDPY4H9ZUSFJ-352YTHGROW24YKNPJMSXI0VFP4T4HP.json
11352.999999999185,shoe,NA,369966,8,16,C,known,36,/Users/dan/Projects/callab/tunkel/Negation2.0/Experiment2/contrastA/production-results/338GLSUI43000P00OVVDPY4H9ZUSFJ-352YTHGROW24YKNPJMSXI0VFP4T4HP.json
6811.999999999884,shoe,NA,377899,9,2,C,known,36,/Users/dan/Projects/callab/tunkel/Negation2.0/Experiment2/contrastA/production-results/338GLSUI43000P00OVVDPY4H9ZUSFJ-352YTHGROW24YKNPJMSXI0VFP4T4HP.json
12127.999999998778,art,NA,391172,10,C,8,unknown,36,/Users/dan/Projects/callab/tunkel/Negation2.0/Experiment2/contrastA/production-results/338GLSUI43000P00OVVDPY4H9ZUSFJ-352YTHGROW24YKNPJMSXI0VFP4T4HP.json
14220.999999999534,sipper,NA,406503,11,K,7,unknown,36,/Users/dan/Projects/callab/tunkel/Negation2.0/Experiment2/contrastA/production-results/338GLSUI43000P00OVVDPY4H9ZUSFJ-352YTHGROW24YKNPJMSXI0VFP4T4HP.json
100991,fork,NA,509389,12,15,G,known,36,/Users/dan/Projects/callab/tunkel/Negation2.0/Experiment2/contrastA/production-results/338GLSUI43000P00OVVDPY4H9ZUSFJ-352YTHGROW24YKNPJMSXI0VFP4T4HP.json
10806.999999998836,art,NA,523323,13,L,4,unknown,36,/Users/dan/Projects/callab/tunkel/Negation2.0/Experiment2/contrastA/production-results/338GLSUI43000P00OVVDPY4H9ZUSFJ-352YTHGROW24YKNPJMSXI0VFP4T4HP.json
13870.999999999185,ring,NA,539939,14,6,F,known,36,/Users/dan/Projects/callab/tunkel/Negation2.0/Experiment2/contrastA/production-results/338GLSUI43000P00OVVDPY4H9ZUSFJ-352YTHGROW24YKNPJMSXI0VFP4T4HP.json
12214,crown,NA,554266,15,D,3,unknown,36,/Users/dan/Projects/callab/tunkel/Negation2.0/Experiment2/contrastA/production-results/338GLSUI43000P00OVVDPY4H9ZUSFJ-352YTHGROW24YKNPJMSXI0VFP4T4HP.json
6483.999999998603,crown,NA,563866,16,E,3,unknown,36,/Users/dan/Projects/callab/tunkel/Negation2.0/Experiment2/contrastA/production-results/338GLSUI43000P00OVVDPY4H9ZUSFJ-352YTHGROW24YKNPJMSXI0VFP4T4HP.json
5640.999999999651,crown,NA,570370,17,N,3,unknown,36,/Users/dan/Projects/callab/tunkel/Negation2.0/Experiment2/contrastA/production-results/338GLSUI43000P00OVVDPY4H9ZUSFJ-352YTHGROW24YKNPJMSXI0VFP4T4HP.json
10950.999999999069,dies,NA,583932,18,3,H,known,36,/Users/dan/Projects/callab/tunkel/Negation2.0/Experiment2/contrastA/production-results/338GLSUI43000P00OVVDPY4H9ZUSFJ-352YTHGROW24YKNPJMSXI0VFP4T4HP.json
6274,Bird,NA,105125,1,practiceDistractor1,practiceTarget1,practice,3,/Users/dan/Projects/callab/tunkel/Negation2.0/Experiment2/contrastA/production-results/338GLSUI43000P00OVVDPY4H9ZUSFJ-35LDD5557BTB40D3VBVQHMS73CRMKF.json
7867,Plane,NA,114598,2,practiceDistractor2,practiceTarget2,practice,3,/Users/dan/Projects/callab/tunkel/Negation2.0/Experiment2/contrastA/production-results/338GLSUI43000P00OVVDPY4H9ZUSFJ-35LDD5557BTB40D3VBVQHMS73CRMKF.json
3685,Flower,NA,121279,3,11,L,known,3,/Users/dan/Projects/callab/tunkel/Negation2.0/Experiment2/contrastA/production-results/338GLSUI43000P00OVVDPY4H9ZUSFJ-35LDD5557BTB40D3VBVQHMS73CRMKF.json
11081,Squeezing tool,NA,135465,4,M,10,unknown,3,/Users/dan/Projects/callab/tunkel/Negation2.0/Experiment2/contrastA/production-results/338GLSUI43000P00OVVDPY4H9ZUSFJ-35LDD5557BTB40D3VBVQHMS73CRMKF.json
10242,Strange shape,NA,148311,5,I,5,unknown,3,/Users/dan/Projects/callab/tunkel/Negation2.0/Experiment2/contrastA/production-results/338GLSUI43000P00OVVDPY4H9ZUSFJ-35LDD5557BTB40D3VBVQHMS73CRMKF.json
2787,Tree,NA,152458,6,4,J,known,3,/Users/dan/Projects/callab/tunkel/Negation2.0/Experiment2/contrastA/production-results/338GLSUI43000P00OVVDPY4H9ZUSFJ-35LDD5557BTB40D3VBVQHMS73CRMKF.json
2470,Cat,NA,158039,7,8,B,known,3,/Users/dan/Projects/callab/tunkel/Negation2.0/Experiment2/contrastA/production-results/338GLSUI43000P00OVVDPY4H9ZUSFJ-35LDD5557BTB40D3VBVQHMS73CRMKF.json
3063,Cat,NA,161960,8,6,B,known,3,/Users/dan/Projects/callab/tunkel/Negation2.0/Experiment2/contrastA/production-results/338GLSUI43000P00OVVDPY4H9ZUSFJ-35LDD5557BTB40D3VBVQHMS73CRMKF.json
3017,Cat,NA,167080,9,7,B,known,3,/Users/dan/Projects/callab/tunkel/Negation2.0/Experiment2/contrastA/production-results/338GLSUI43000P00OVVDPY4H9ZUSFJ-35LDD5557BTB40D3VBVQHMS73CRMKF.json
6097,Toy,NA,174280,10,B,15,unknown,3,/Users/dan/Projects/callab/tunkel/Negation2.0/Experiment2/contrastA/production-results/338GLSUI43000P00OVVDPY4H9ZUSFJ-35LDD5557BTB40D3VBVQHMS73CRMKF.json
10081,Oval shape,NA,185714,11,K,16,unknown,3,/Users/dan/Projects/callab/tunkel/Negation2.0/Experiment2/contrastA/production-results/338GLSUI43000P00OVVDPY4H9ZUSFJ-35LDD5557BTB40D3VBVQHMS73CRMKF.json
3154,Chair,NA,189721,12,3,E,known,3,/Users/dan/Projects/callab/tunkel/Negation2.0/Experiment2/contrastA/production-results/338GLSUI43000P00OVVDPY4H9ZUSFJ-35LDD5557BTB40D3VBVQHMS73CRMKF.json
8520,Spiked circle,NA,200844,13,A,1,unknown,3,/Users/dan/Projects/callab/tunkel/Negation2.0/Experiment2/contrastA/production-results/338GLSUI43000P00OVVDPY4H9ZUSFJ-35LDD5557BTB40D3VBVQHMS73CRMKF.json
3306,Fork,NA,206254,14,9,G,known,3,/Users/dan/Projects/callab/tunkel/Negation2.0/Experiment2/contrastA/production-results/338GLSUI43000P00OVVDPY4H9ZUSFJ-35LDD5557BTB40D3VBVQHMS73CRMKF.json
6902,Spinning thing,NA,215259,15,N,12,unknown,3,/Users/dan/Projects/callab/tunkel/Negation2.0/Experiment2/contrastA/production-results/338GLSUI43000P00OVVDPY4H9ZUSFJ-35LDD5557BTB40D3VBVQHMS73CRMKF.json
6110,Spinning thing,NA,223223,16,D,12,unknown,3,/Users/dan/Projects/callab/tunkel/Negation2.0/Experiment2/contrastA/production-results/338GLSUI43000P00OVVDPY4H9ZUSFJ-35LDD5557BTB40D3VBVQHMS73CRMKF.json
2773,Spinning thing,NA,227349,17,C,12,unknown,3,/Users/dan/Projects/callab/tunkel/Negation2.0/Experiment2/contrastA/production-results/338GLSUI43000P00OVVDPY4H9ZUSFJ-35LDD5557BTB40D3VBVQHMS73CRMKF.json
3610,Dice,NA,232061,18,12,H,known,3,/Users/dan/Projects/callab/tunkel/Negation2.0/Experiment2/contrastA/production-results/338GLSUI43000P00OVVDPY4H9ZUSFJ-35LDD5557BTB40D3VBVQHMS73CRMKF.json
6186,Bird,NA,132476,1,practiceDistractor1,practiceTarget1,practice,15,/Users/dan/Projects/callab/tunkel/Negation2.0/Experiment2/contrastA/production-results/338GLSUI43000P00OVVDPY4H9ZUSFJ-392CY0QWG2G4UFY9P4AIICWUPH84II.json
4903,Airplane,NA,139481,2,practiceDistractor2,practiceTarget2,practice,15,/Users/dan/Projects/callab/tunkel/Negation2.0/Experiment2/contrastA/production-results/338GLSUI43000P00OVVDPY4H9ZUSFJ-392CY0QWG2G4UFY9P4AIICWUPH84II.json
3470,Flower,NA,145818,3,12,L,known,15,/Users/dan/Projects/callab/tunkel/Negation2.0/Experiment2/contrastA/production-results/338GLSUI43000P00OVVDPY4H9ZUSFJ-392CY0QWG2G4UFY9P4AIICWUPH84II.json
8523,Not the tree,NA,157443,4,J,6,unknown,15,/Users/dan/Projects/callab/tunkel/Negation2.0/Experiment2/contrastA/production-results/338GLSUI43000P00OVVDPY4H9ZUSFJ-392CY0QWG2G4UFY9P4AIICWUPH84II.json
4462,Not the car,NA,164508,5,I,3,unknown,15,/Users/dan/Projects/callab/tunkel/Negation2.0/Experiment2/contrastA/production-results/338GLSUI43000P00OVVDPY4H9ZUSFJ-392CY0QWG2G4UFY9P4AIICWUPH84II.json
3180,Ring,NA,170290,6,11,F,known,15,/Users/dan/Projects/callab/tunkel/Negation2.0/Experiment2/contrastA/production-results/338GLSUI43000P00OVVDPY4H9ZUSFJ-392CY0QWG2G4UFY9P4AIICWUPH84II.json
7430,Die,NA,179071,7,15,H,known,15,/Users/dan/Projects/callab/tunkel/Negation2.0/Experiment2/contrastA/production-results/338GLSUI43000P00OVVDPY4H9ZUSFJ-392CY0QWG2G4UFY9P4AIICWUPH84II.json
12139,Die a single from a pair of dice,NA,194314,8,9,H,known,15,/Users/dan/Projects/callab/tunkel/Negation2.0/Experiment2/contrastA/production-results/338GLSUI43000P00OVVDPY4H9ZUSFJ-392CY0QWG2G4UFY9P4AIICWUPH84II.json
7487,die,NA,203654,9,4,H,known,15,/Users/dan/Projects/callab/tunkel/Negation2.0/Experiment2/contrastA/production-results/338GLSUI43000P00OVVDPY4H9ZUSFJ-392CY0QWG2G4UFY9P4AIICWUPH84II.json
11456,Barbelllike object,NA,216212,10,H,5,unknown,15,/Users/dan/Projects/callab/tunkel/Negation2.0/Experiment2/contrastA/production-results/338GLSUI43000P00OVVDPY4H9ZUSFJ-392CY0QWG2G4UFY9P4AIICWUPH84II.json
7400,Pump,NA,224464,11,K,10,unknown,15,/Users/dan/Projects/callab/tunkel/Negation2.0/Experiment2/contrastA/production-results/338GLSUI43000P00OVVDPY4H9ZUSFJ-392CY0QWG2G4UFY9P4AIICWUPH84II.json
2972,Crab,NA,230038,12,16,N,known,15,/Users/dan/Projects/callab/tunkel/Negation2.0/Experiment2/contrastA/production-results/338GLSUI43000P00OVVDPY4H9ZUSFJ-392CY0QWG2G4UFY9P4AIICWUPH84II.json
9215,Not the fork,NA,241855,13,G,8,unknown,15,/Users/dan/Projects/callab/tunkel/Negation2.0/Experiment2/contrastA/production-results/338GLSUI43000P00OVVDPY4H9ZUSFJ-392CY0QWG2G4UFY9P4AIICWUPH84II.json
3212,Mug,NA,246670,14,2,M,known,15,/Users/dan/Projects/callab/tunkel/Negation2.0/Experiment2/contrastA/production-results/338GLSUI43000P00OVVDPY4H9ZUSFJ-392CY0QWG2G4UFY9P4AIICWUPH84II.json
6781,Spiky dog toy,NA,255304,15,C,1,unknown,15,/Users/dan/Projects/callab/tunkel/Negation2.0/Experiment2/contrastA/production-results/338GLSUI43000P00OVVDPY4H9ZUSFJ-392CY0QWG2G4UFY9P4AIICWUPH84II.json
7144,Spiky dog toy,NA,263799,16,B,1,unknown,15,/Users/dan/Projects/callab/tunkel/Negation2.0/Experiment2/contrastA/production-results/338GLSUI43000P00OVVDPY4H9ZUSFJ-392CY0QWG2G4UFY9P4AIICWUPH84II.json
3006,Spiky dog toy,NA,268907,17,D,1,unknown,15,/Users/dan/Projects/callab/tunkel/Negation2.0/Experiment2/contrastA/production-results/338GLSUI43000P00OVVDPY4H9ZUSFJ-392CY0QWG2G4UFY9P4AIICWUPH84II.json
3792,Apple,NA,274554,18,1,A,known,15,/Users/dan/Projects/callab/tunkel/Negation2.0/Experiment2/contrastA/production-results/338GLSUI43000P00OVVDPY4H9ZUSFJ-392CY0QWG2G4UFY9P4AIICWUPH84II.json
7034.620000049472,birb,NA,94533,1,practiceDistractor1,practiceTarget1,practice,1,/Users/dan/Projects/callab/tunkel/Negation2.0/Experiment2/contrastA/production-results/338GLSUI43000P00OVVDPY4H9ZUSFJ-3G5W44VEU87BCQHHK8XV4H8A7RHGK5.json
8968.014999991283,plane,NA,104610,2,practiceDistractor2,practiceTarget2,practice,1,/Users/dan/Projects/callab/tunkel/Negation2.0/Experiment2/contrastA/production-results/338GLSUI43000P00OVVDPY4H9ZUSFJ-3G5W44VEU87BCQHHK8XV4H8A7RHGK5.json
3471.8299999367446,die,NA,112702,3,2,H,known,1,/Users/dan/Projects/callab/tunkel/Negation2.0/Experiment2/contrastA/production-results/338GLSUI43000P00OVVDPY4H9ZUSFJ-3G5W44VEU87BCQHHK8XV4H8A7RHGK5.json
15917.024999973364,thing that looks like a closed plunger,NA,131726,4,C,10,unknown,1,/Users/dan/Projects/callab/tunkel/Negation2.0/Experiment2/contrastA/production-results/338GLSUI43000P00OVVDPY4H9ZUSFJ-3G5W44VEU87BCQHHK8XV4H8A7RHGK5.json
25029.82999989763,circle donut thingy with marshmallow sticks in it,NA,158864,5,J,4,unknown,1,/Users/dan/Projects/callab/tunkel/Negation2.0/Experiment2/contrastA/production-results/338GLSUI43000P00OVVDPY4H9ZUSFJ-3G5W44VEU87BCQHHK8XV4H8A7RHGK5.json
7481.565000023693,flutterbye,NA,167452,6,9,K,known,1,/Users/dan/Projects/callab/tunkel/Negation2.0/Experiment2/contrastA/production-results/338GLSUI43000P00OVVDPY4H9ZUSFJ-3G5W44VEU87BCQHHK8XV4H8A7RHGK5.json
16165.830000070855,ring with large gem,NA,184726,7,16,F,known,1,/Users/dan/Projects/callab/tunkel/Negation2.0/Experiment2/contrastA/production-results/338GLSUI43000P00OVVDPY4H9ZUSFJ-3G5W44VEU87BCQHHK8XV4H8A7RHGK5.json
20889.72500001546,ring with rounded ornament,NA,208722,8,11,F,known,1,/Users/dan/Projects/callab/tunkel/Negation2.0/Experiment2/contrastA/production-results/338GLSUI43000P00OVVDPY4H9ZUSFJ-3G5W44VEU87BCQHHK8XV4H8A7RHGK5.json
19562.620000098832,ring with domed ornament,NA,229390,9,12,F,known,1,/Users/dan/Projects/callab/tunkel/Negation2.0/Experiment2/contrastA/production-results/338GLSUI43000P00OVVDPY4H9ZUSFJ-3G5W44VEU87BCQHHK8XV4H8A7RHGK5.json
9193.969999905676,spiky mine balls,NA,240190,10,F,1,unknown,1,/Users/dan/Projects/callab/tunkel/Negation2.0/Experiment2/contrastA/production-results/338GLSUI43000P00OVVDPY4H9ZUSFJ-3G5W44VEU87BCQHHK8XV4H8A7RHGK5.json
12530.664999969304,white iceberg looking thing,NA,254828,11,I,3,unknown,1,/Users/dan/Projects/callab/tunkel/Negation2.0/Experiment2/contrastA/production-results/338GLSUI43000P00OVVDPY4H9ZUSFJ-3G5W44VEU87BCQHHK8XV4H8A7RHGK5.json
10304.784999927506,traditional wooden chair,NA,266237,12,6,E,known,1,/Users/dan/Projects/callab/tunkel/Negation2.0/Experiment2/contrastA/production-results/338GLSUI43000P00OVVDPY4H9ZUSFJ-3G5W44VEU87BCQHHK8XV4H8A7RHGK5.json
16801.304999971762,block puzzle,NA,285643,13,B,15,unknown,1,/Users/dan/Projects/callab/tunkel/Negation2.0/Experiment2/contrastA/production-results/338GLSUI43000P00OVVDPY4H9ZUSFJ-3G5W44VEU87BCQHHK8XV4H8A7RHGK5.json
8513.489999924786,glass mug,NA,295013,14,8,M,known,1,/Users/dan/Projects/callab/tunkel/Negation2.0/Experiment2/contrastA/production-results/338GLSUI43000P00OVVDPY4H9ZUSFJ-3G5W44VEU87BCQHHK8XV4H8A7RHGK5.json
31797.36999992747,things that looks like a dumbbell with three points on each end,NA,328917,15,A,5,unknown,1,/Users/dan/Projects/callab/tunkel/Negation2.0/Experiment2/contrastA/production-results/338GLSUI43000P00OVVDPY4H9ZUSFJ-3G5W44VEU87BCQHHK8XV4H8A7RHGK5.json
68303.53500007186,abstract dumbbell,NA,398329,16,D,5,unknown,1,/Users/dan/Projects/callab/tunkel/Negation2.0/Experiment2/contrastA/production-results/338GLSUI43000P00OVVDPY4H9ZUSFJ-3G5W44VEU87BCQHHK8XV4H8A7RHGK5.json
15170.345000107773,bar with 3 points on each end,NA,416607,17,N,5,unknown,1,/Users/dan/Projects/callab/tunkel/Negation2.0/Experiment2/contrastA/production-results/338GLSUI43000P00OVVDPY4H9ZUSFJ-3G5W44VEU87BCQHHK8XV4H8A7RHGK5.json
6366.189999971539,sunflower,NA,424081,18,5,L,known,1,/Users/dan/Projects/callab/tunkel/Negation2.0/Experiment2/contrastA/production-results/338GLSUI43000P00OVVDPY4H9ZUSFJ-3G5W44VEU87BCQHHK8XV4H8A7RHGK5.json
6802,bird,NA,178245,1,practiceDistractor1,practiceTarget1,practice,37,/Users/dan/Projects/callab/tunkel/Negation2.0/Experiment2/contrastA/production-results/338GLSUI43000P00OVVDPY4H9ZUSFJ-3K3R2QNK8CSA0CZL0GVNINVL54I9U0.json
6221,plane,NA,187121,2,practiceDistractor2,practiceTarget2,practice,37,/Users/dan/Projects/callab/tunkel/Negation2.0/Experiment2/contrastA/production-results/338GLSUI43000P00OVVDPY4H9ZUSFJ-3K3R2QNK8CSA0CZL0GVNINVL54I9U0.json
2854,car,NA,193452,3,6,I,known,37,/Users/dan/Projects/callab/tunkel/Negation2.0/Experiment2/contrastA/production-results/338GLSUI43000P00OVVDPY4H9ZUSFJ-3K3R2QNK8CSA0CZL0GVNINVL54I9U0.json
23745,dark sculpture,NA,218567,4,L,11,unknown,37,/Users/dan/Projects/callab/tunkel/Negation2.0/Experiment2/contrastA/production-results/338GLSUI43000P00OVVDPY4H9ZUSFJ-3K3R2QNK8CSA0CZL0GVNINVL54I9U0.json
19640,thin art piece,NA,239576,5,N,7,unknown,37,/Users/dan/Projects/callab/tunkel/Negation2.0/Experiment2/contrastA/production-results/338GLSUI43000P00OVVDPY4H9ZUSFJ-3K3R2QNK8CSA0CZL0GVNINVL54I9U0.json
3822,cat,NA,246024,6,8,B,known,37,/Users/dan/Projects/callab/tunkel/Negation2.0/Experiment2/contrastA/production-results/338GLSUI43000P00OVVDPY4H9ZUSFJ-3K3R2QNK8CSA0CZL0GVNINVL54I9U0.json
6789,butterfly,NA,255975,7,10,K,known,37,/Users/dan/Projects/callab/tunkel/Negation2.0/Experiment2/contrastA/production-results/338GLSUI43000P00OVVDPY4H9ZUSFJ-3K3R2QNK8CSA0CZL0GVNINVL54I9U0.json
5895,butterfly,NA,263569,8,2,K,known,37,/Users/dan/Projects/callab/tunkel/Negation2.0/Experiment2/contrastA/production-results/338GLSUI43000P00OVVDPY4H9ZUSFJ-3K3R2QNK8CSA0CZL0GVNINVL54I9U0.json
4985,butterfly,NA,269426,9,4,K,known,37,/Users/dan/Projects/callab/tunkel/Negation2.0/Experiment2/contrastA/production-results/338GLSUI43000P00OVVDPY4H9ZUSFJ-3K3R2QNK8CSA0CZL0GVNINVL54I9U0.json
25268,tool with handle,NA,297832,10,K,9,unknown,37,/Users/dan/Projects/callab/tunkel/Negation2.0/Experiment2/contrastA/production-results/338GLSUI43000P00OVVDPY4H9ZUSFJ-3K3R2QNK8CSA0CZL0GVNINVL54I9U0.json
10201,blimp sculpture,NA,309405,11,D,16,unknown,37,/Users/dan/Projects/callab/tunkel/Negation2.0/Experiment2/contrastA/production-results/338GLSUI43000P00OVVDPY4H9ZUSFJ-3K3R2QNK8CSA0CZL0GVNINVL54I9U0.json
2518,fork,NA,314079,12,15,G,known,37,/Users/dan/Projects/callab/tunkel/Negation2.0/Experiment2/contrastA/production-results/338GLSUI43000P00OVVDPY4H9ZUSFJ-3K3R2QNK8CSA0CZL0GVNINVL54I9U0.json
7766,spinning top,NA,322752,13,M,12,unknown,37,/Users/dan/Projects/callab/tunkel/Negation2.0/Experiment2/contrastA/production-results/338GLSUI43000P00OVVDPY4H9ZUSFJ-3K3R2QNK8CSA0CZL0GVNINVL54I9U0.json
3105,ring,NA,326769,14,1,F,known,37,/Users/dan/Projects/callab/tunkel/Negation2.0/Experiment2/contrastA/production-results/338GLSUI43000P00OVVDPY4H9ZUSFJ-3K3R2QNK8CSA0CZL0GVNINVL54I9U0.json
6374,art piece,NA,335295,15,C,5,unknown,37,/Users/dan/Projects/callab/tunkel/Negation2.0/Experiment2/contrastA/production-results/338GLSUI43000P00OVVDPY4H9ZUSFJ-3K3R2QNK8CSA0CZL0GVNINVL54I9U0.json
5066,art piece,NA,343477,16,E,5,unknown,37,/Users/dan/Projects/callab/tunkel/Negation2.0/Experiment2/contrastA/production-results/338GLSUI43000P00OVVDPY4H9ZUSFJ-3K3R2QNK8CSA0CZL0GVNINVL54I9U0.json
3910,art piece,NA,350028,17,H,5,unknown,37,/Users/dan/Projects/callab/tunkel/Negation2.0/Experiment2/contrastA/production-results/338GLSUI43000P00OVVDPY4H9ZUSFJ-3K3R2QNK8CSA0CZL0GVNINVL54I9U0.json
2519,tree,NA,354685,18,5,J,known,37,/Users/dan/Projects/callab/tunkel/Negation2.0/Experiment2/contrastA/production-results/338GLSUI43000P00OVVDPY4H9ZUSFJ-3K3R2QNK8CSA0CZL0GVNINVL54I9U0.json
7039.290000015171,bird,NA,97307,1,practiceDistractor1,practiceTarget1,practice,10,/Users/dan/Projects/callab/tunkel/Negation2.0/Experiment2/contrastA/production-results/338GLSUI43000P00OVVDPY4H9ZUSFJ-3U84XHCDID2QP5NJP8Y4I7ZKLU9Z49.json
3019.014999998035,plane,NA,102181,2,practiceDistractor2,practiceTarget2,practice,10,/Users/dan/Projects/callab/tunkel/Negation2.0/Experiment2/contrastA/production-results/338GLSUI43000P00OVVDPY4H9ZUSFJ-3U84XHCDID2QP5NJP8Y4I7ZKLU9Z49.json
2941.2949999968987,cup,NA,107736,3,2,M,known,10,/Users/dan/Projects/callab/tunkel/Negation2.0/Experiment2/contrastA/production-results/338GLSUI43000P00OVVDPY4H9ZUSFJ-3U84XHCDID2QP5NJP8Y4I7ZKLU9Z49.json
4762.4549999891315,art,NA,114353,4,E,4,unknown,10,/Users/dan/Projects/callab/tunkel/Negation2.0/Experiment2/contrastA/production-results/338GLSUI43000P00OVVDPY4H9ZUSFJ-3U84XHCDID2QP5NJP8Y4I7ZKLU9Z49.json
3366.405000007944,toy,NA,118824,5,F,1,unknown,10,/Users/dan/Projects/callab/tunkel/Negation2.0/Experiment2/contrastA/production-results/338GLSUI43000P00OVVDPY4H9ZUSFJ-3U84XHCDID2QP5NJP8Y4I7ZKLU9Z49.json
2604.1649999970105,apple,NA,122531,6,16,A,known,10,/Users/dan/Projects/callab/tunkel/Negation2.0/Experiment2/contrastA/production-results/338GLSUI43000P00OVVDPY4H9ZUSFJ-3U84XHCDID2QP5NJP8Y4I7ZKLU9Z49.json
3485.2150000224356,dice,NA,127370,7,8,H,known,10,/Users/dan/Projects/callab/tunkel/Negation2.0/Experiment2/contrastA/production-results/338GLSUI43000P00OVVDPY4H9ZUSFJ-3U84XHCDID2QP5NJP8Y4I7ZKLU9Z49.json
2113.409999990836,dice,NA,130839,8,15,H,known,10,/Users/dan/Projects/callab/tunkel/Negation2.0/Experiment2/contrastA/production-results/338GLSUI43000P00OVVDPY4H9ZUSFJ-3U84XHCDID2QP5NJP8Y4I7ZKLU9Z49.json
2778.825000015786,dice,NA,136722,9,9,H,known,10,/Users/dan/Projects/callab/tunkel/Negation2.0/Experiment2/contrastA/production-results/338GLSUI43000P00OVVDPY4H9ZUSFJ-3U84XHCDID2QP5NJP8Y4I7ZKLU9Z49.json
5715.540000004694,toy,NA,143793,10,H,6,unknown,10,/Users/dan/Projects/callab/tunkel/Negation2.0/Experiment2/contrastA/production-results/338GLSUI43000P00OVVDPY4H9ZUSFJ-3U84XHCDID2QP5NJP8Y4I7ZKLU9Z49.json
2689.1450000111945,toy,NA,148336,11,C,5,unknown,10,/Users/dan/Projects/callab/tunkel/Negation2.0/Experiment2/contrastA/production-results/338GLSUI43000P00OVVDPY4H9ZUSFJ-3U84XHCDID2QP5NJP8Y4I7ZKLU9Z49.json
2302.400000015041,fork,NA,152243,12,11,G,known,10,/Users/dan/Projects/callab/tunkel/Negation2.0/Experiment2/contrastA/production-results/338GLSUI43000P00OVVDPY4H9ZUSFJ-3U84XHCDID2QP5NJP8Y4I7ZKLU9Z49.json
3940.644999995129,art,NA,158038,13,L,3,unknown,10,/Users/dan/Projects/callab/tunkel/Negation2.0/Experiment2/contrastA/production-results/338GLSUI43000P00OVVDPY4H9ZUSFJ-3U84XHCDID2QP5NJP8Y4I7ZKLU9Z49.json
2880.380000016885,pen,NA,161773,14,10,D,known,10,/Users/dan/Projects/callab/tunkel/Negation2.0/Experiment2/contrastA/production-results/338GLSUI43000P00OVVDPY4H9ZUSFJ-3U84XHCDID2QP5NJP8Y4I7ZKLU9Z49.json
5334.345000010217,art,NA,169711,15,K,7,unknown,10,/Users/dan/Projects/callab/tunkel/Negation2.0/Experiment2/contrastA/production-results/338GLSUI43000P00OVVDPY4H9ZUSFJ-3U84XHCDID2QP5NJP8Y4I7ZKLU9Z49.json
3399.839999998221,art,NA,174965,16,B,7,unknown,10,/Users/dan/Projects/callab/tunkel/Negation2.0/Experiment2/contrastA/production-results/338GLSUI43000P00OVVDPY4H9ZUSFJ-3U84XHCDID2QP5NJP8Y4I7ZKLU9Z49.json
3416.1800000001676,art,NA,180486,17,J,7,unknown,10,/Users/dan/Projects/callab/tunkel/Negation2.0/Experiment2/contrastA/production-results/338GLSUI43000P00OVVDPY4H9ZUSFJ-3U84XHCDID2QP5NJP8Y4I7ZKLU9Z49.json
3375.7599999953527,crab,NA,186968,18,7,N,known,10,/Users/dan/Projects/callab/tunkel/Negation2.0/Experiment2/contrastA/production-results/338GLSUI43000P00OVVDPY4H9ZUSFJ-3U84XHCDID2QP5NJP8Y4I7ZKLU9Z49.json
5473.884999984875,bird,NA,182583,1,practiceDistractor1,practiceTarget1,practice,13,/Users/dan/Projects/callab/tunkel/Negation2.0/Experiment2/contrastA/production-results/338GLSUI43000P00OVVDPY4H9ZUSFJ-3WR9XG3T64075VHD6D6LRN6LB1W74P.json
6838.044999865815,plane,NA,192598,2,practiceDistractor2,practiceTarget2,practice,13,/Users/dan/Projects/callab/tunkel/Negation2.0/Experiment2/contrastA/production-results/338GLSUI43000P00OVVDPY4H9ZUSFJ-3WR9XG3T64075VHD6D6LRN6LB1W74P.json
4617.210000054911,ring,NA,207756,3,16,F,known,13,/Users/dan/Projects/callab/tunkel/Negation2.0/Experiment2/contrastA/production-results/338GLSUI43000P00OVVDPY4H9ZUSFJ-3WR9XG3T64075VHD6D6LRN6LB1W74P.json
17746.82500003837,plunger,NA,226378,4,K,10,unknown,13,/Users/dan/Projects/callab/tunkel/Negation2.0/Experiment2/contrastA/production-results/338GLSUI43000P00OVVDPY4H9ZUSFJ-3WR9XG3T64075VHD6D6LRN6LB1W74P.json
8272.579999873415,toy,NA,236514,5,M,7,unknown,13,/Users/dan/Projects/callab/tunkel/Negation2.0/Experiment2/contrastA/production-results/338GLSUI43000P00OVVDPY4H9ZUSFJ-3WR9XG3T64075VHD6D6LRN6LB1W74P.json
5840.014999965206,tree,NA,243474,6,15,J,known,13,/Users/dan/Projects/callab/tunkel/Negation2.0/Experiment2/contrastA/production-results/338GLSUI43000P00OVVDPY4H9ZUSFJ-3WR9XG3T64075VHD6D6LRN6LB1W74P.json
5122.29000008665,shoe,NA,250205,7,3,C,known,13,/Users/dan/Projects/callab/tunkel/Negation2.0/Experiment2/contrastA/production-results/338GLSUI43000P00OVVDPY4H9ZUSFJ-3WR9XG3T64075VHD6D6LRN6LB1W74P.json
5423.8599999807775,shoe,NA,256786,8,4,C,known,13,/Users/dan/Projects/callab/tunkel/Negation2.0/Experiment2/contrastA/production-results/338GLSUI43000P00OVVDPY4H9ZUSFJ-3WR9XG3T64075VHD6D6LRN6LB1W74P.json
6013.74000008218,shoe,NA,264167,9,12,C,known,13,/Users/dan/Projects/callab/tunkel/Negation2.0/Experiment2/contrastA/production-results/338GLSUI43000P00OVVDPY4H9ZUSFJ-3WR9XG3T64075VHD6D6LRN6LB1W74P.json
5241.124999942258,toy,NA,272101,10,C,1,unknown,13,/Users/dan/Projects/callab/tunkel/Negation2.0/Experiment2/contrastA/production-results/338GLSUI43000P00OVVDPY4H9ZUSFJ-3WR9XG3T64075VHD6D6LRN6LB1W74P.json
8258.239999879152,toy,NA,281491,11,A,9,unknown,13,/Users/dan/Projects/callab/tunkel/Negation2.0/Experiment2/contrastA/production-results/338GLSUI43000P00OVVDPY4H9ZUSFJ-3WR9XG3T64075VHD6D6LRN6LB1W74P.json
8256.039999891073,flower,NA,290864,12,6,L,known,13,/Users/dan/Projects/callab/tunkel/Negation2.0/Experiment2/contrastA/production-results/338GLSUI43000P00OVVDPY4H9ZUSFJ-3WR9XG3T64075VHD6D6LRN6LB1W74P.json
7862.715000053868,toy,NA,300126,13,H,5,unknown,13,/Users/dan/Projects/callab/tunkel/Negation2.0/Experiment2/contrastA/production-results/338GLSUI43000P00OVVDPY4H9ZUSFJ-3WR9XG3T64075VHD6D6LRN6LB1W74P.json
5366.445000050589,cat,NA,308610,14,11,B,known,13,/Users/dan/Projects/callab/tunkel/Negation2.0/Experiment2/contrastA/production-results/338GLSUI43000P00OVVDPY4H9ZUSFJ-3WR9XG3T64075VHD6D6LRN6LB1W74P.json
8349.97499990277,toy,NA,317937,15,N,8,unknown,13,/Users/dan/Projects/callab/tunkel/Negation2.0/Experiment2/contrastA/production-results/338GLSUI43000P00OVVDPY4H9ZUSFJ-3WR9XG3T64075VHD6D6LRN6LB1W74P.json
5447.265000082552,toy,NA,326500,16,D,8,unknown,13,/Users/dan/Projects/callab/tunkel/Negation2.0/Experiment2/contrastA/production-results/338GLSUI43000P00OVVDPY4H9ZUSFJ-3WR9XG3T64075VHD6D6LRN6LB1W74P.json
4692.62499990873,toy,NA,332858,17,G,8,unknown,13,/Users/dan/Projects/callab/tunkel/Negation2.0/Experiment2/contrastA/production-results/338GLSUI43000P00OVVDPY4H9ZUSFJ-3WR9XG3T64075VHD6D6LRN6LB1W74P.json
3536.1699999775738,car,NA,338024,18,8,I,known,13,/Users/dan/Projects/callab/tunkel/Negation2.0/Experiment2/contrastA/production-results/338GLSUI43000P00OVVDPY4H9ZUSFJ-3WR9XG3T64075VHD6D6LRN6LB1W74P.json
11067.03999999445,bird,NA,91202,1,practiceDistractor1,practiceTarget1,practice,31,/Users/dan/Projects/callab/tunkel/Negation2.0/Experiment2/contrastA/production-results/338GLSUI43000P00OVVDPY4H9ZUSFJ-3Y54SXRO1MATKR8ZYM049NWXZBBTUA.json
8279.60999996867,jet,NA,101132,2,practiceDistractor2,practiceTarget2,practice,31,/Users/dan/Projects/callab/tunkel/Negation2.0/Experiment2/contrastA/production-results/338GLSUI43000P00OVVDPY4H9ZUSFJ-3Y54SXRO1MATKR8ZYM049NWXZBBTUA.json
9402.014999999665,butterfly,NA,113922,3,1,K,known,31,/Users/dan/Projects/callab/tunkel/Negation2.0/Experiment2/contrastA/production-results/338GLSUI43000P00OVVDPY4H9ZUSFJ-3Y54SXRO1MATKR8ZYM049NWXZBBTUA.json
10172.750000027008,not the crab,NA,122187,4,N,9,unknown,31,/Users/dan/Projects/callab/tunkel/Negation2.0/Experiment2/contrastA/production-results/338GLSUI43000P00OVVDPY4H9ZUSFJ-3Y54SXRO1MATKR8ZYM049NWXZBBTUA.json
9437.634999980219,not the flower,NA,134755,5,L,12,unknown,31,/Users/dan/Projects/callab/tunkel/Negation2.0/Experiment2/contrastA/production-results/338GLSUI43000P00OVVDPY4H9ZUSFJ-3Y54SXRO1MATKR8ZYM049NWXZBBTUA.json
5437.264999956824,car,NA,143363,6,2,I,known,31,/Users/dan/Projects/callab/tunkel/Negation2.0/Experiment2/contrastA/production-results/338GLSUI43000P00OVVDPY4H9ZUSFJ-3Y54SXRO1MATKR8ZYM049NWXZBBTUA.json
6541.049999999814,tree,NA,152092,7,10,J,known,31,/Users/dan/Projects/callab/tunkel/Negation2.0/Experiment2/contrastA/production-results/338GLSUI43000P00OVVDPY4H9ZUSFJ-3Y54SXRO1MATKR8ZYM049NWXZBBTUA.json
5729.8899999586865,tree,NA,160988,8,4,J,known,31,/Users/dan/Projects/callab/tunkel/Negation2.0/Experiment2/contrastA/production-results/338GLSUI43000P00OVVDPY4H9ZUSFJ-3Y54SXRO1MATKR8ZYM049NWXZBBTUA.json
5334.26499995403,tree,NA,169476,9,7,J,known,31,/Users/dan/Projects/callab/tunkel/Negation2.0/Experiment2/contrastA/production-results/338GLSUI43000P00OVVDPY4H9ZUSFJ-3Y54SXRO1MATKR8ZYM049NWXZBBTUA.json
6425.350000034086,not tree,NA,174888,10,J,3,unknown,31,/Users/dan/Projects/callab/tunkel/Negation2.0/Experiment2/contrastA/production-results/338GLSUI43000P00OVVDPY4H9ZUSFJ-3Y54SXRO1MATKR8ZYM049NWXZBBTUA.json
6195.155000081286,not ring,NA,182512,11,F,5,unknown,31,/Users/dan/Projects/callab/tunkel/Negation2.0/Experiment2/contrastA/production-results/338GLSUI43000P00OVVDPY4H9ZUSFJ-3Y54SXRO1MATKR8ZYM049NWXZBBTUA.json
3440.9600000362843,apple,NA,187096,12,16,A,known,31,/Users/dan/Projects/callab/tunkel/Negation2.0/Experiment2/contrastA/production-results/338GLSUI43000P00OVVDPY4H9ZUSFJ-3Y54SXRO1MATKR8ZYM049NWXZBBTUA.json
7711.934999912046,not die,NA,195912,13,H,15,unknown,31,/Users/dan/Projects/callab/tunkel/Negation2.0/Experiment2/contrastA/production-results/338GLSUI43000P00OVVDPY4H9ZUSFJ-3Y54SXRO1MATKR8ZYM049NWXZBBTUA.json
4539.6200000541285,cup,NA,202056,14,11,M,known,31,/Users/dan/Projects/callab/tunkel/Negation2.0/Experiment2/contrastA/production-results/338GLSUI43000P00OVVDPY4H9ZUSFJ-3Y54SXRO1MATKR8ZYM049NWXZBBTUA.json
5339.644999941811,not cat,NA,208768,15,B,6,unknown,31,/Users/dan/Projects/callab/tunkel/Negation2.0/Experiment2/contrastA/production-results/338GLSUI43000P00OVVDPY4H9ZUSFJ-3Y54SXRO1MATKR8ZYM049NWXZBBTUA.json
5943.379999953322,not fork,NA,216080,16,G,6,unknown,31,/Users/dan/Projects/callab/tunkel/Negation2.0/Experiment2/contrastA/production-results/338GLSUI43000P00OVVDPY4H9ZUSFJ-3Y54SXRO1MATKR8ZYM049NWXZBBTUA.json
5902.074999990873,not pen,NA,223848,17,D,6,unknown,31,/Users/dan/Projects/callab/tunkel/Negation2.0/Experiment2/contrastA/production-results/338GLSUI43000P00OVVDPY4H9ZUSFJ-3Y54SXRO1MATKR8ZYM049NWXZBBTUA.json
4346.100000082515,chair,NA,230048,18,6,E,known,31,/Users/dan/Projects/callab/tunkel/Negation2.0/Experiment2/contrastA/production-results/338GLSUI43000P00OVVDPY4H9ZUSFJ-3Y54SXRO1MATKR8ZYM049NWXZBBTUA.json
3479.7249999828637,bird,NA,67089,1,practiceDistractor1,practiceTarget1,practice,27,/Users/dan/Projects/callab/tunkel/Negation2.0/Experiment2/contrastA/production-results/338GLSUI43000P00OVVDPY4H9ZUSFJ-3Z9WI9EOZ0DPCMCS4EFDPHKBMQIKHU.json
3429.1950000915676,plane,NA,73136,2,practiceDistractor2,practiceTarget2,practice,27,/Users/dan/Projects/callab/tunkel/Negation2.0/Experiment2/contrastA/production-results/338GLSUI43000P00OVVDPY4H9ZUSFJ-3Z9WI9EOZ0DPCMCS4EFDPHKBMQIKHU.json
2887.834999943152,fruit,NA,78328,3,6,A,known,27,/Users/dan/Projects/callab/tunkel/Negation2.0/Experiment2/contrastA/production-results/338GLSUI43000P00OVVDPY4H9ZUSFJ-3Z9WI9EOZ0DPCMCS4EFDPHKBMQIKHU.json
7151.285000145435,spiky item,NA,86590,4,E,1,unknown,27,/Users/dan/Projects/callab/tunkel/Negation2.0/Experiment2/contrastA/production-results/338GLSUI43000P00OVVDPY4H9ZUSFJ-3Z9WI9EOZ0DPCMCS4EFDPHKBMQIKHU.json
3080.104999942705,vase,NA,90530,5,N,2,unknown,27,/Users/dan/Projects/callab/tunkel/Negation2.0/Experiment2/contrastA/production-results/338GLSUI43000P00OVVDPY4H9ZUSFJ-3Z9WI9EOZ0DPCMCS4EFDPHKBMQIKHU.json
508822.6349998731,dice,NA,602463,6,10,H,known,27,/Users/dan/Projects/callab/tunkel/Negation2.0/Experiment2/contrastA/production-results/338GLSUI43000P00OVVDPY4H9ZUSFJ-3Z9WI9EOZ0DPCMCS4EFDPHKBMQIKHU.json
2263.0849999841303,tree,NA,606591,7,3,J,known,27,/Users/dan/Projects/callab/tunkel/Negation2.0/Experiment2/contrastA/production-results/338GLSUI43000P00OVVDPY4H9ZUSFJ-3Z9WI9EOZ0DPCMCS4EFDPHKBMQIKHU.json
2696.914999978617,tree,NA,612397,8,8,J,known,27,/Users/dan/Projects/callab/tunkel/Negation2.0/Experiment2/contrastA/production-results/338GLSUI43000P00OVVDPY4H9ZUSFJ-3Z9WI9EOZ0DPCMCS4EFDPHKBMQIKHU.json
3180.6900000665337,tree,NA,617437,9,12,J,known,27,/Users/dan/Projects/callab/tunkel/Negation2.0/Experiment2/contrastA/production-results/338GLSUI43000P00OVVDPY4H9ZUSFJ-3Z9WI9EOZ0DPCMCS4EFDPHKBMQIKHU.json
5386.149999918416,art,NA,624180,10,J,5,unknown,27,/Users/dan/Projects/callab/tunkel/Negation2.0/Experiment2/contrastA/production-results/338GLSUI43000P00OVVDPY4H9ZUSFJ-3Z9WI9EOZ0DPCMCS4EFDPHKBMQIKHU.json
4676.614999771118,fluffly,NA,630474,11,C,4,unknown,27,/Users/dan/Projects/callab/tunkel/Negation2.0/Experiment2/contrastA/production-results/338GLSUI43000P00OVVDPY4H9ZUSFJ-3Z9WI9EOZ0DPCMCS4EFDPHKBMQIKHU.json
3958.3449999336153,utensil,NA,637544,12,11,G,known,27,/Users/dan/Projects/callab/tunkel/Negation2.0/Experiment2/contrastA/production-results/338GLSUI43000P00OVVDPY4H9ZUSFJ-3Z9WI9EOZ0DPCMCS4EFDPHKBMQIKHU.json
5085.660000098869,art,NA,644245,13,D,7,unknown,27,/Users/dan/Projects/callab/tunkel/Negation2.0/Experiment2/contrastA/production-results/338GLSUI43000P00OVVDPY4H9ZUSFJ-3Z9WI9EOZ0DPCMCS4EFDPHKBMQIKHU.json
3932.0349998306483,insect,NA,649539,14,16,K,known,27,/Users/dan/Projects/callab/tunkel/Negation2.0/Experiment2/contrastA/production-results/338GLSUI43000P00OVVDPY4H9ZUSFJ-3Z9WI9EOZ0DPCMCS4EFDPHKBMQIKHU.json
4184.385000029579,plastic,NA,656841,15,L,9,unknown,27,/Users/dan/Projects/callab/tunkel/Negation2.0/Experiment2/contrastA/production-results/338GLSUI43000P00OVVDPY4H9ZUSFJ-3Z9WI9EOZ0DPCMCS4EFDPHKBMQIKHU.json
4225.1049999613315,plastic,NA,663175,16,B,9,unknown,27,/Users/dan/Projects/callab/tunkel/Negation2.0/Experiment2/contrastA/production-results/338GLSUI43000P00OVVDPY4H9ZUSFJ-3Z9WI9EOZ0DPCMCS4EFDPHKBMQIKHU.json
2995.264999801293,plastic,NA,667787,17,F,9,unknown,27,/Users/dan/Projects/callab/tunkel/Negation2.0/Experiment2/contrastA/production-results/338GLSUI43000P00OVVDPY4H9ZUSFJ-3Z9WI9EOZ0DPCMCS4EFDPHKBMQIKHU.json
2529.4449999928474,cup,NA,672182,18,9,M,known,27,/Users/dan/Projects/callab/tunkel/Negation2.0/Experiment2/contrastA/production-results/338GLSUI43000P00OVVDPY4H9ZUSFJ-3Z9WI9EOZ0DPCMCS4EFDPHKBMQIKHU.json
14385.435000003781,bird,NA,111582,1,practiceDistractor1,practiceTarget1,practice,32,/Users/dan/Projects/callab/tunkel/Negation2.0/Experiment2/contrastA/production-results/3BPP3MA3TC9LQY5E9BE6VU5M547LEG-37UEWGM5HUX0VF49S9LPY6QI0TGR1V.json
8917.50999999931,plane,NA,122596,2,practiceDistractor2,practiceTarget2,practice,32,/Users/dan/Projects/callab/tunkel/Negation2.0/Experiment2/contrastA/production-results/3BPP3MA3TC9LQY5E9BE6VU5M547LEG-37UEWGM5HUX0VF49S9LPY6QI0TGR1V.json
11710.590000031516,drink from it,NA,138956,3,3,M,known,32,/Users/dan/Projects/callab/tunkel/Negation2.0/Experiment2/contrastA/production-results/3BPP3MA3TC9LQY5E9BE6VU5M547LEG-37UEWGM5HUX0VF49S9LPY6QI0TGR1V.json
11347.409999987576,wear on foot,NA,151426,4,C,11,unknown,32,/Users/dan/Projects/callab/tunkel/Negation2.0/Experiment2/contrastA/production-results/3BPP3MA3TC9LQY5E9BE6VU5M547LEG-37UEWGM5HUX0VF49S9LPY6QI0TGR1V.json
30691.569999966305,plunger or suction thing,NA,183511,5,J,10,unknown,32,/Users/dan/Projects/callab/tunkel/Negation2.0/Experiment2/contrastA/production-results/3BPP3MA3TC9LQY5E9BE6VU5M547LEG-37UEWGM5HUX0VF49S9LPY6QI0TGR1V.json
7597.019999986514,pen,NA,193726,6,5,D,known,32,/Users/dan/Projects/callab/tunkel/Negation2.0/Experiment2/contrastA/production-results/3BPP3MA3TC9LQY5E9BE6VU5M547LEG-37UEWGM5HUX0VF49S9LPY6QI0TGR1V.json
9635.44499996351,utinsel with tines,NA,206497,7,15,G,known,32,/Users/dan/Projects/callab/tunkel/Negation2.0/Experiment2/contrastA/production-results/3BPP3MA3TC9LQY5E9BE6VU5M547LEG-37UEWGM5HUX0VF49S9LPY6QI0TGR1V.json
7181.930000020657,fork,NA,215304,8,1,G,known,32,/Users/dan/Projects/callab/tunkel/Negation2.0/Experiment2/contrastA/production-results/3BPP3MA3TC9LQY5E9BE6VU5M547LEG-37UEWGM5HUX0VF49S9LPY6QI0TGR1V.json
12406.894999963697,utensil,NA,229072,9,16,G,known,32,/Users/dan/Projects/callab/tunkel/Negation2.0/Experiment2/contrastA/production-results/3BPP3MA3TC9LQY5E9BE6VU5M547LEG-37UEWGM5HUX0VF49S9LPY6QI0TGR1V.json
28540.199999988545,round donut shape with 4 things sprouting off of it,NA,258471,10,G,4,unknown,32,/Users/dan/Projects/callab/tunkel/Negation2.0/Experiment2/contrastA/production-results/3BPP3MA3TC9LQY5E9BE6VU5M547LEG-37UEWGM5HUX0VF49S9LPY6QI0TGR1V.json
16670.085000048857,flip flop for very fat foot,NA,278264,11,A,7,unknown,32,/Users/dan/Projects/callab/tunkel/Negation2.0/Experiment2/contrastA/production-results/3BPP3MA3TC9LQY5E9BE6VU5M547LEG-37UEWGM5HUX0VF49S9LPY6QI0TGR1V.json
6174.094999965746,it purrs,NA,286305,12,8,B,known,32,/Users/dan/Projects/callab/tunkel/Negation2.0/Experiment2/contrastA/production-results/3BPP3MA3TC9LQY5E9BE6VU5M547LEG-37UEWGM5HUX0VF49S9LPY6QI0TGR1V.json
38204.369999992196,glass obect with holes and a top,NA,325887,13,E,2,unknown,32,/Users/dan/Projects/callab/tunkel/Negation2.0/Experiment2/contrastA/production-results/3BPP3MA3TC9LQY5E9BE6VU5M547LEG-37UEWGM5HUX0VF49S9LPY6QI0TGR1V.json
6030.934999987949,sedan,NA,333285,14,6,I,known,32,/Users/dan/Projects/callab/tunkel/Negation2.0/Experiment2/contrastA/production-results/3BPP3MA3TC9LQY5E9BE6VU5M547LEG-37UEWGM5HUX0VF49S9LPY6QI0TGR1V.json
9929.394999984652,not a butterfly,NA,344581,15,K,9,unknown,32,/Users/dan/Projects/callab/tunkel/Negation2.0/Experiment2/contrastA/production-results/3BPP3MA3TC9LQY5E9BE6VU5M547LEG-37UEWGM5HUX0VF49S9LPY6QI0TGR1V.json
8139.804999984335,not a flower,NA,354839,16,L,9,unknown,32,/Users/dan/Projects/callab/tunkel/Negation2.0/Experiment2/contrastA/production-results/3BPP3MA3TC9LQY5E9BE6VU5M547LEG-37UEWGM5HUX0VF49S9LPY6QI0TGR1V.json
5889.889999991283,not a ring,NA,362090,17,F,9,unknown,32,/Users/dan/Projects/callab/tunkel/Negation2.0/Experiment2/contrastA/production-results/3BPP3MA3TC9LQY5E9BE6VU5M547LEG-37UEWGM5HUX0VF49S9LPY6QI0TGR1V.json
11335.719999973662,gamble by throwing,NA,376548,18,9,H,known,32,/Users/dan/Projects/callab/tunkel/Negation2.0/Experiment2/contrastA/production-results/3BPP3MA3TC9LQY5E9BE6VU5M547LEG-37UEWGM5HUX0VF49S9LPY6QI0TGR1V.json
4001.7400000069756,bird,NA,90137,1,practiceDistractor1,practiceTarget1,practice,11,/Users/dan/Projects/callab/tunkel/Negation2.0/Experiment2/contrastA/production-results/3BPP3MA3TC9LQY5E9BE6VU5M547LEG-3TE3O85731X7K0M5BDL33P0NSZUR2C.json
6757.205000001704,fly,NA,99501,2,practiceDistractor2,practiceTarget2,practice,11,/Users/dan/Projects/callab/tunkel/Negation2.0/Experiment2/contrastA/production-results/3BPP3MA3TC9LQY5E9BE6VU5M547LEG-3TE3O85731X7K0M5BDL33P0NSZUR2C.json
8430.259999993723,drink,NA,125837,3,16,M,known,11,/Users/dan/Projects/callab/tunkel/Negation2.0/Experiment2/contrastA/production-results/3BPP3MA3TC9LQY5E9BE6VU5M547LEG-3TE3O85731X7K0M5BDL33P0NSZUR2C.json
8366.880000015954,art,NA,136812,4,A,8,unknown,11,/Users/dan/Projects/callab/tunkel/Negation2.0/Experiment2/contrastA/production-results/3BPP3MA3TC9LQY5E9BE6VU5M547LEG-3TE3O85731X7K0M5BDL33P0NSZUR2C.json
8684.919999999693,art,NA,148604,5,J,4,unknown,11,/Users/dan/Projects/callab/tunkel/Negation2.0/Experiment2/contrastA/production-results/3BPP3MA3TC9LQY5E9BE6VU5M547LEG-3TE3O85731X7K0M5BDL33P0NSZUR2C.json
4895.695000013802,meow,NA,155108,6,9,B,known,11,/Users/dan/Projects/callab/tunkel/Negation2.0/Experiment2/contrastA/production-results/3BPP3MA3TC9LQY5E9BE6VU5M547LEG-3TE3O85731X7K0M5BDL33P0NSZUR2C.json
6627.399999997579,spring,NA,163092,7,5,L,known,11,/Users/dan/Projects/callab/tunkel/Negation2.0/Experiment2/contrastA/production-results/3BPP3MA3TC9LQY5E9BE6VU5M547LEG-3TE3O85731X7K0M5BDL33P0NSZUR2C.json
8467.055000015534,spring,NA,172916,8,15,L,known,11,/Users/dan/Projects/callab/tunkel/Negation2.0/Experiment2/contrastA/production-results/3BPP3MA3TC9LQY5E9BE6VU5M547LEG-3TE3O85731X7K0M5BDL33P0NSZUR2C.json
5249.019999988377,spring,NA,180020,9,1,L,known,11,/Users/dan/Projects/callab/tunkel/Negation2.0/Experiment2/contrastA/production-results/3BPP3MA3TC9LQY5E9BE6VU5M547LEG-3TE3O85731X7K0M5BDL33P0NSZUR2C.json
6460.305000015069,ear,NA,187589,10,L,10,unknown,11,/Users/dan/Projects/callab/tunkel/Negation2.0/Experiment2/contrastA/production-results/3BPP3MA3TC9LQY5E9BE6VU5M547LEG-3TE3O85731X7K0M5BDL33P0NSZUR2C.json
7388.664999976754,art,NA,196084,11,D,11,unknown,11,/Users/dan/Projects/callab/tunkel/Negation2.0/Experiment2/contrastA/production-results/3BPP3MA3TC9LQY5E9BE6VU5M547LEG-3TE3O85731X7K0M5BDL33P0NSZUR2C.json
6555.505000025732,sea,NA,203749,12,6,N,known,11,/Users/dan/Projects/callab/tunkel/Negation2.0/Experiment2/contrastA/production-results/3BPP3MA3TC9LQY5E9BE6VU5M547LEG-3TE3O85731X7K0M5BDL33P0NSZUR2C.json
13925.474999996368,spining,NA,220780,13,H,12,unknown,11,/Users/dan/Projects/callab/tunkel/Negation2.0/Experiment2/contrastA/production-results/3BPP3MA3TC9LQY5E9BE6VU5M547LEG-3TE3O85731X7K0M5BDL33P0NSZUR2C.json
4695.059999998193,sit,NA,226332,14,2,E,known,11,/Users/dan/Projects/callab/tunkel/Negation2.0/Experiment2/contrastA/production-results/3BPP3MA3TC9LQY5E9BE6VU5M547LEG-3TE3O85731X7K0M5BDL33P0NSZUR2C.json
13524.065000005066,art,NA,241964,15,I,7,unknown,11,/Users/dan/Projects/callab/tunkel/Negation2.0/Experiment2/contrastA/production-results/3BPP3MA3TC9LQY5E9BE6VU5M547LEG-3TE3O85731X7K0M5BDL33P0NSZUR2C.json
4255.85499999579,art,NA,247076,16,G,7,unknown,11,/Users/dan/Projects/callab/tunkel/Negation2.0/Experiment2/contrastA/production-results/3BPP3MA3TC9LQY5E9BE6VU5M547LEG-3TE3O85731X7K0M5BDL33P0NSZUR2C.json
3416.5199999988545,art,NA,253100,17,F,7,unknown,11,/Users/dan/Projects/callab/tunkel/Negation2.0/Experiment2/contrastA/production-results/3BPP3MA3TC9LQY5E9BE6VU5M547LEG-3TE3O85731X7K0M5BDL33P0NSZUR2C.json
5699.649999995017,walk,NA,260156,18,7,C,known,11,/Users/dan/Projects/callab/tunkel/Negation2.0/Experiment2/contrastA/production-results/3BPP3MA3TC9LQY5E9BE6VU5M547LEG-3TE3O85731X7K0M5BDL33P0NSZUR2C.json
4835.900000005495,bird,NA,78812,1,practiceDistractor1,practiceTarget1,practice,23,/Users/dan/Projects/callab/tunkel/Negation2.0/Experiment2/contrastA/production-results/3JUDR1D0D6G4MF9B8WR1AFVRI74Q28-35GCEFQ6I6D5794FPUTL827E7UDZ3O.json
5203.815000015311,airplane,NA,86121,2,practiceDistractor2,practiceTarget2,practice,23,/Users/dan/Projects/callab/tunkel/Negation2.0/Experiment2/contrastA/production-results/3JUDR1D0D6G4MF9B8WR1AFVRI74Q28-35GCEFQ6I6D5794FPUTL827E7UDZ3O.json
3400.5899999756366,tree,NA,93319,3,11,J,known,23,/Users/dan/Projects/callab/tunkel/Negation2.0/Experiment2/contrastA/production-results/3JUDR1D0D6G4MF9B8WR1AFVRI74Q28-35GCEFQ6I6D5794FPUTL827E7UDZ3O.json
5344.74999998929,jet,NA,101769,4,I,16,unknown,23,/Users/dan/Projects/callab/tunkel/Negation2.0/Experiment2/contrastA/production-results/3JUDR1D0D6G4MF9B8WR1AFVRI74Q28-35GCEFQ6I6D5794FPUTL827E7UDZ3O.json
7935.954999993555,art,NA,111810,5,F,8,unknown,23,/Users/dan/Projects/callab/tunkel/Negation2.0/Experiment2/contrastA/production-results/3JUDR1D0D6G4MF9B8WR1AFVRI74Q28-35GCEFQ6I6D5794FPUTL827E7UDZ3O.json
3232.9700000118464,flower,NA,116148,6,5,L,known,23,/Users/dan/Projects/callab/tunkel/Negation2.0/Experiment2/contrastA/production-results/3JUDR1D0D6G4MF9B8WR1AFVRI74Q28-35GCEFQ6I6D5794FPUTL827E7UDZ3O.json
4186.660000006668,apple,NA,121440,7,12,A,known,23,/Users/dan/Projects/callab/tunkel/Negation2.0/Experiment2/contrastA/production-results/3JUDR1D0D6G4MF9B8WR1AFVRI74Q28-35GCEFQ6I6D5794FPUTL827E7UDZ3O.json
3319.4800000055693,apple,NA,126866,8,15,A,known,23,/Users/dan/Projects/callab/tunkel/Negation2.0/Experiment2/contrastA/production-results/3JUDR1D0D6G4MF9B8WR1AFVRI74Q28-35GCEFQ6I6D5794FPUTL827E7UDZ3O.json
3759.230000025127,apple,NA,133739,9,1,A,known,23,/Users/dan/Projects/callab/tunkel/Negation2.0/Experiment2/contrastA/production-results/3JUDR1D0D6G4MF9B8WR1AFVRI74Q28-35GCEFQ6I6D5794FPUTL827E7UDZ3O.json
8113.669999991544,sculpture,NA,143458,10,A,3,unknown,23,/Users/dan/Projects/callab/tunkel/Negation2.0/Experiment2/contrastA/production-results/3JUDR1D0D6G4MF9B8WR1AFVRI74Q28-35GCEFQ6I6D5794FPUTL827E7UDZ3O.json
5247.205000021495,ski,NA,151312,11,H,7,unknown,23,/Users/dan/Projects/callab/tunkel/Negation2.0/Experiment2/contrastA/production-results/3JUDR1D0D6G4MF9B8WR1AFVRI74Q28-35GCEFQ6I6D5794FPUTL827E7UDZ3O.json
5762.860000017099,butterfly,NA,158930,12,2,K,known,23,/Users/dan/Projects/callab/tunkel/Negation2.0/Experiment2/contrastA/production-results/3JUDR1D0D6G4MF9B8WR1AFVRI74Q28-35GCEFQ6I6D5794FPUTL827E7UDZ3O.json
4395.000000018626,flower,NA,165431,13,C,4,unknown,23,/Users/dan/Projects/callab/tunkel/Negation2.0/Experiment2/contrastA/production-results/3JUDR1D0D6G4MF9B8WR1AFVRI74Q28-35GCEFQ6I6D5794FPUTL827E7UDZ3O.json
2915.7300000078976,fork,NA,169701,14,10,G,known,23,/Users/dan/Projects/callab/tunkel/Negation2.0/Experiment2/contrastA/production-results/3JUDR1D0D6G4MF9B8WR1AFVRI74Q28-35GCEFQ6I6D5794FPUTL827E7UDZ3O.json
8176.054999988992,art,NA,180983,15,N,9,unknown,23,/Users/dan/Projects/callab/tunkel/Negation2.0/Experiment2/contrastA/production-results/3JUDR1D0D6G4MF9B8WR1AFVRI74Q28-35GCEFQ6I6D5794FPUTL827E7UDZ3O.json
2894.635000033304,art,NA,184734,16,E,9,unknown,23,/Users/dan/Projects/callab/tunkel/Negation2.0/Experiment2/contrastA/production-results/3JUDR1D0D6G4MF9B8WR1AFVRI74Q28-35GCEFQ6I6D5794FPUTL827E7UDZ3O.json
4465.640000009444,art,NA,190554,17,M,9,unknown,23,/Users/dan/Projects/callab/tunkel/Negation2.0/Experiment2/contrastA/production-results/3JUDR1D0D6G4MF9B8WR1AFVRI74Q28-35GCEFQ6I6D5794FPUTL827E7UDZ3O.json
1989.2049999907613,cat,NA,193899,18,9,B,known,23,/Users/dan/Projects/callab/tunkel/Negation2.0/Experiment2/contrastA/production-results/3JUDR1D0D6G4MF9B8WR1AFVRI74Q28-35GCEFQ6I6D5794FPUTL827E7UDZ3O.json
2856.775000007474,bird,NA,78810,1,practiceDistractor1,practiceTarget1,practice,8,/Users/dan/Projects/callab/tunkel/Negation2.0/Experiment2/contrastA/production-results/3JUDR1D0D6G4MF9B8WR1AFVRI74Q28-388U7OUMF8Q0OQJRWQHPK178V1AR0S.json
2688.750000001164,plane,NA,82368,2,practiceDistractor2,practiceTarget2,practice,8,/Users/dan/Projects/callab/tunkel/Negation2.0/Experiment2/contrastA/production-results/3JUDR1D0D6G4MF9B8WR1AFVRI74Q28-388U7OUMF8Q0OQJRWQHPK178V1AR0S.json
2402.6299999968614,cat,NA,88946,3,11,B,known,8,/Users/dan/Projects/callab/tunkel/Negation2.0/Experiment2/contrastA/production-results/3JUDR1D0D6G4MF9B8WR1AFVRI74Q28-388U7OUMF8Q0OQJRWQHPK178V1AR0S.json
4335.765000010724,two,NA,94645,4,D,1,unknown,8,/Users/dan/Projects/callab/tunkel/Negation2.0/Experiment2/contrastA/production-results/3JUDR1D0D6G4MF9B8WR1AFVRI74Q28-388U7OUMF8Q0OQJRWQHPK178V1AR0S.json
4963.944999995874,cymbals,NA,100970,5,F,12,unknown,8,/Users/dan/Projects/callab/tunkel/Negation2.0/Experiment2/contrastA/production-results/3JUDR1D0D6G4MF9B8WR1AFVRI74Q28-388U7OUMF8Q0OQJRWQHPK178V1AR0S.json
2615.6099999934668,flower,NA,104698,6,2,L,known,8,/Users/dan/Projects/callab/tunkel/Negation2.0/Experiment2/contrastA/production-results/3JUDR1D0D6G4MF9B8WR1AFVRI74Q28-388U7OUMF8Q0OQJRWQHPK178V1AR0S.json
2128.4149999992223,tree,NA,107688,7,8,J,known,8,/Users/dan/Projects/callab/tunkel/Negation2.0/Experiment2/contrastA/production-results/3JUDR1D0D6G4MF9B8WR1AFVRI74Q28-388U7OUMF8Q0OQJRWQHPK178V1AR0S.json
2332.8849999961676,tree,NA,112634,8,15,J,known,8,/Users/dan/Projects/callab/tunkel/Negation2.0/Experiment2/contrastA/production-results/3JUDR1D0D6G4MF9B8WR1AFVRI74Q28-388U7OUMF8Q0OQJRWQHPK178V1AR0S.json
2732.124999994994,tree,NA,116476,9,3,J,known,8,/Users/dan/Projects/callab/tunkel/Negation2.0/Experiment2/contrastA/production-results/3JUDR1D0D6G4MF9B8WR1AFVRI74Q28-388U7OUMF8Q0OQJRWQHPK178V1AR0S.json
5782.03499999654,dumbell,NA,124869,10,J,5,unknown,8,/Users/dan/Projects/callab/tunkel/Negation2.0/Experiment2/contrastA/production-results/3JUDR1D0D6G4MF9B8WR1AFVRI74Q28-388U7OUMF8Q0OQJRWQHPK178V1AR0S.json
5308.890000000247,left,NA,131791,11,M,6,unknown,8,/Users/dan/Projects/callab/tunkel/Negation2.0/Experiment2/contrastA/production-results/3JUDR1D0D6G4MF9B8WR1AFVRI74Q28-388U7OUMF8Q0OQJRWQHPK178V1AR0S.json
2149.7099999978673,chair,NA,134802,12,16,E,known,8,/Users/dan/Projects/callab/tunkel/Negation2.0/Experiment2/contrastA/production-results/3JUDR1D0D6G4MF9B8WR1AFVRI74Q28-388U7OUMF8Q0OQJRWQHPK178V1AR0S.json
6951.860000001034,donut,NA,143115,13,A,4,unknown,8,/Users/dan/Projects/callab/tunkel/Negation2.0/Experiment2/contrastA/production-results/3JUDR1D0D6G4MF9B8WR1AFVRI74Q28-388U7OUMF8Q0OQJRWQHPK178V1AR0S.json
2306.2649999919813,dice,NA,148536,14,9,H,known,8,/Users/dan/Projects/callab/tunkel/Negation2.0/Experiment2/contrastA/production-results/3JUDR1D0D6G4MF9B8WR1AFVRI74Q28-388U7OUMF8Q0OQJRWQHPK178V1AR0S.json
4515.755000000354,right,NA,155663,15,C,10,unknown,8,/Users/dan/Projects/callab/tunkel/Negation2.0/Experiment2/contrastA/production-results/3JUDR1D0D6G4MF9B8WR1AFVRI74Q28-388U7OUMF8Q0OQJRWQHPK178V1AR0S.json
2203.5499999910826,right,NA,159978,16,N,10,unknown,8,/Users/dan/Projects/callab/tunkel/Negation2.0/Experiment2/contrastA/production-results/3JUDR1D0D6G4MF9B8WR1AFVRI74Q28-388U7OUMF8Q0OQJRWQHPK178V1AR0S.json
2118.965000001481,left,NA,163959,17,K,10,unknown,8,/Users/dan/Projects/callab/tunkel/Negation2.0/Experiment2/contrastA/production-results/3JUDR1D0D6G4MF9B8WR1AFVRI74Q28-388U7OUMF8Q0OQJRWQHPK178V1AR0S.json
2216.450000007171,fork,NA,168292,18,10,G,known,8,/Users/dan/Projects/callab/tunkel/Negation2.0/Experiment2/contrastA/production-results/3JUDR1D0D6G4MF9B8WR1AFVRI74Q28-388U7OUMF8Q0OQJRWQHPK178V1AR0S.json
5036.274999962188,bird,NA,99158,1,practiceDistractor1,practiceTarget1,practice,5,/Users/dan/Projects/callab/tunkel/Negation2.0/Experiment2/contrastA/production-results/3JUDR1D0D6G4MF9B8WR1AFVRI74Q28-39GHHAVOMGG0PQIF7MVIUDBU2WX4JU.json
4568.35499999579,airplane,NA,105607,2,practiceDistractor2,practiceTarget2,practice,5,/Users/dan/Projects/callab/tunkel/Negation2.0/Experiment2/contrastA/production-results/3JUDR1D0D6G4MF9B8WR1AFVRI74Q28-39GHHAVOMGG0PQIF7MVIUDBU2WX4JU.json
2555.2349999779835,shoe,NA,111602,3,11,C,known,5,/Users/dan/Projects/callab/tunkel/Negation2.0/Experiment2/contrastA/production-results/3JUDR1D0D6G4MF9B8WR1AFVRI74Q28-39GHHAVOMGG0PQIF7MVIUDBU2WX4JU.json
8509.759999986272,toy,NA,122745,4,E,12,unknown,5,/Users/dan/Projects/callab/tunkel/Negation2.0/Experiment2/contrastA/production-results/3JUDR1D0D6G4MF9B8WR1AFVRI74Q28-39GHHAVOMGG0PQIF7MVIUDBU2WX4JU.json
17777.60999999009,art,NA,141906,5,F,7,unknown,5,/Users/dan/Projects/callab/tunkel/Negation2.0/Experiment2/contrastA/production-results/3JUDR1D0D6G4MF9B8WR1AFVRI74Q28-39GHHAVOMGG0PQIF7MVIUDBU2WX4JU.json
4163.000000000466,fork,NA,147452,6,3,G,known,5,/Users/dan/Projects/callab/tunkel/Negation2.0/Experiment2/contrastA/production-results/3JUDR1D0D6G4MF9B8WR1AFVRI74Q28-39GHHAVOMGG0PQIF7MVIUDBU2WX4JU.json
2297.0149999600835,crab,NA,150612,7,9,N,known,5,/Users/dan/Projects/callab/tunkel/Negation2.0/Experiment2/contrastA/production-results/3JUDR1D0D6G4MF9B8WR1AFVRI74Q28-39GHHAVOMGG0PQIF7MVIUDBU2WX4JU.json
2310.8249999932013,crab,NA,155045,8,4,N,known,5,/Users/dan/Projects/callab/tunkel/Negation2.0/Experiment2/contrastA/production-results/3JUDR1D0D6G4MF9B8WR1AFVRI74Q28-39GHHAVOMGG0PQIF7MVIUDBU2WX4JU.json
2424.5200000004843,crab,NA,158329,9,8,N,known,5,/Users/dan/Projects/callab/tunkel/Negation2.0/Experiment2/contrastA/production-results/3JUDR1D0D6G4MF9B8WR1AFVRI74Q28-39GHHAVOMGG0PQIF7MVIUDBU2WX4JU.json
8491.135000018403,plastic,NA,167683,10,N,6,unknown,5,/Users/dan/Projects/callab/tunkel/Negation2.0/Experiment2/contrastA/production-results/3JUDR1D0D6G4MF9B8WR1AFVRI74Q28-39GHHAVOMGG0PQIF7MVIUDBU2WX4JU.json
24434.674999967683,plunger looking thing,NA,194731,11,A,10,unknown,5,/Users/dan/Projects/callab/tunkel/Negation2.0/Experiment2/contrastA/production-results/3JUDR1D0D6G4MF9B8WR1AFVRI74Q28-39GHHAVOMGG0PQIF7MVIUDBU2WX4JU.json
2007.015000039246,tree,NA,198858,12,15,J,known,5,/Users/dan/Projects/callab/tunkel/Negation2.0/Experiment2/contrastA/production-results/3JUDR1D0D6G4MF9B8WR1AFVRI74Q28-39GHHAVOMGG0PQIF7MVIUDBU2WX4JU.json
4909.3400000128895,dog toy,NA,206894,13,L,2,unknown,5,/Users/dan/Projects/callab/tunkel/Negation2.0/Experiment2/contrastA/production-results/3JUDR1D0D6G4MF9B8WR1AFVRI74Q28-39GHHAVOMGG0PQIF7MVIUDBU2WX4JU.json
5510.424999985844,dice,NA,213775,14,5,H,known,5,/Users/dan/Projects/callab/tunkel/Negation2.0/Experiment2/contrastA/production-results/3JUDR1D0D6G4MF9B8WR1AFVRI74Q28-39GHHAVOMGG0PQIF7MVIUDBU2WX4JU.json
3738.7350000208244,toy,NA,218625,15,I,16,unknown,5,/Users/dan/Projects/callab/tunkel/Negation2.0/Experiment2/contrastA/production-results/3JUDR1D0D6G4MF9B8WR1AFVRI74Q28-39GHHAVOMGG0PQIF7MVIUDBU2WX4JU.json
2161.0599999548867,toy,NA,223892,16,D,16,unknown,5,/Users/dan/Projects/callab/tunkel/Negation2.0/Experiment2/contrastA/production-results/3JUDR1D0D6G4MF9B8WR1AFVRI74Q28-39GHHAVOMGG0PQIF7MVIUDBU2WX4JU.json
1345.2849999885075,toy,NA,227101,17,M,16,unknown,5,/Users/dan/Projects/callab/tunkel/Negation2.0/Experiment2/contrastA/production-results/3JUDR1D0D6G4MF9B8WR1AFVRI74Q28-39GHHAVOMGG0PQIF7MVIUDBU2WX4JU.json
1708.669999963604,cat,NA,229932,18,16,B,known,5,/Users/dan/Projects/callab/tunkel/Negation2.0/Experiment2/contrastA/production-results/3JUDR1D0D6G4MF9B8WR1AFVRI74Q28-39GHHAVOMGG0PQIF7MVIUDBU2WX4JU.json
3247.4400000010064,bird,NA,43682,1,practiceDistractor1,practiceTarget1,practice,20,/Users/dan/Projects/callab/tunkel/Negation2.0/Experiment2/contrastA/production-results/3JUDR1D0D6G4MF9B8WR1AFVRI74Q28-3IAEQB9FMF9ZV6177WFQM7Z8H5RWDM.json
3015.7300000009855,jet,NA,49826,2,practiceDistractor2,practiceTarget2,practice,20,/Users/dan/Projects/callab/tunkel/Negation2.0/Experiment2/contrastA/production-results/3JUDR1D0D6G4MF9B8WR1AFVRI74Q28-3IAEQB9FMF9ZV6177WFQM7Z8H5RWDM.json
3022.705000001224,dice,NA,56363,3,5,H,known,20,/Users/dan/Projects/callab/tunkel/Negation2.0/Experiment2/contrastA/production-results/3JUDR1D0D6G4MF9B8WR1AFVRI74Q28-3IAEQB9FMF9ZV6177WFQM7Z8H5RWDM.json
3162.669999999707,art,NA,61396,4,A,9,unknown,20,/Users/dan/Projects/callab/tunkel/Negation2.0/Experiment2/contrastA/production-results/3JUDR1D0D6G4MF9B8WR1AFVRI74Q28-3IAEQB9FMF9ZV6177WFQM7Z8H5RWDM.json
4248.4800000002,snowboard,NA,67511,5,D,7,unknown,20,/Users/dan/Projects/callab/tunkel/Negation2.0/Experiment2/contrastA/production-results/3JUDR1D0D6G4MF9B8WR1AFVRI74Q28-3IAEQB9FMF9ZV6177WFQM7Z8H5RWDM.json
15390.074999999342,chair,NA,84523,6,3,E,known,20,/Users/dan/Projects/callab/tunkel/Negation2.0/Experiment2/contrastA/production-results/3JUDR1D0D6G4MF9B8WR1AFVRI74Q28-3IAEQB9FMF9ZV6177WFQM7Z8H5RWDM.json
3011.339999999109,mug,NA,89651,7,2,M,known,20,/Users/dan/Projects/callab/tunkel/Negation2.0/Experiment2/contrastA/production-results/3JUDR1D0D6G4MF9B8WR1AFVRI74Q28-3IAEQB9FMF9ZV6177WFQM7Z8H5RWDM.json
2786.5550000005896,mug,NA,93813,8,1,M,known,20,/Users/dan/Projects/callab/tunkel/Negation2.0/Experiment2/contrastA/production-results/3JUDR1D0D6G4MF9B8WR1AFVRI74Q28-3IAEQB9FMF9ZV6177WFQM7Z8H5RWDM.json
2397.1700000001874,mug,NA,97827,9,16,M,known,20,/Users/dan/Projects/callab/tunkel/Negation2.0/Experiment2/contrastA/production-results/3JUDR1D0D6G4MF9B8WR1AFVRI74Q28-3IAEQB9FMF9ZV6177WFQM7Z8H5RWDM.json
7714.02499999931,plunger,NA,107410,10,M,10,unknown,20,/Users/dan/Projects/callab/tunkel/Negation2.0/Experiment2/contrastA/production-results/3JUDR1D0D6G4MF9B8WR1AFVRI74Q28-3IAEQB9FMF9ZV6177WFQM7Z8H5RWDM.json
2849.210000000312,art,NA,111883,11,C,12,unknown,20,/Users/dan/Projects/callab/tunkel/Negation2.0/Experiment2/contrastA/production-results/3JUDR1D0D6G4MF9B8WR1AFVRI74Q28-3IAEQB9FMF9ZV6177WFQM7Z8H5RWDM.json
5242.334999999002,fork,NA,119260,12,11,G,known,20,/Users/dan/Projects/callab/tunkel/Negation2.0/Experiment2/contrastA/production-results/3JUDR1D0D6G4MF9B8WR1AFVRI74Q28-3IAEQB9FMF9ZV6177WFQM7Z8H5RWDM.json
3598.7999999997555,blocks,NA,123981,13,K,15,unknown,20,/Users/dan/Projects/callab/tunkel/Negation2.0/Experiment2/contrastA/production-results/3JUDR1D0D6G4MF9B8WR1AFVRI74Q28-3IAEQB9FMF9ZV6177WFQM7Z8H5RWDM.json
2610.2800000007846,cat,NA,127714,14,6,B,known,20,/Users/dan/Projects/callab/tunkel/Negation2.0/Experiment2/contrastA/production-results/3JUDR1D0D6G4MF9B8WR1AFVRI74Q28-3IAEQB9FMF9ZV6177WFQM7Z8H5RWDM.json
4557.839999999487,ball,NA,134148,15,I,8,unknown,20,/Users/dan/Projects/callab/tunkel/Negation2.0/Experiment2/contrastA/production-results/3JUDR1D0D6G4MF9B8WR1AFVRI74Q28-3IAEQB9FMF9ZV6177WFQM7Z8H5RWDM.json
3119.0500000011525,ball,NA,139135,16,L,8,unknown,20,/Users/dan/Projects/callab/tunkel/Negation2.0/Experiment2/contrastA/production-results/3JUDR1D0D6G4MF9B8WR1AFVRI74Q28-3IAEQB9FMF9ZV6177WFQM7Z8H5RWDM.json
2569.590000000986,ball,NA,142571,17,N,8,unknown,20,/Users/dan/Projects/callab/tunkel/Negation2.0/Experiment2/contrastA/production-results/3JUDR1D0D6G4MF9B8WR1AFVRI74Q28-3IAEQB9FMF9ZV6177WFQM7Z8H5RWDM.json
2838.6700000009732,ring,NA,147277,18,8,F,known,20,/Users/dan/Projects/callab/tunkel/Negation2.0/Experiment2/contrastA/production-results/3JUDR1D0D6G4MF9B8WR1AFVRI74Q28-3IAEQB9FMF9ZV6177WFQM7Z8H5RWDM.json
16828.99999999971,bird,NA,174073,1,practiceDistractor1,practiceTarget1,practice,34,/Users/dan/Projects/callab/tunkel/Negation2.0/Experiment2/contrastA/production-results/3JUDR1D0D6G4MF9B8WR1AFVRI74Q28-3LRKMWOKB66GMR8WLUFGPS2M1GDZ2D.json
6668.999999999884,aeroplane,NA,183362,2,practiceDistractor2,practiceTarget2,practice,34,/Users/dan/Projects/callab/tunkel/Negation2.0/Experiment2/contrastA/production-results/3JUDR1D0D6G4MF9B8WR1AFVRI74Q28-3LRKMWOKB66GMR8WLUFGPS2M1GDZ2D.json
4378.000000000582,chair,NA,192052,3,7,E,known,34,/Users/dan/Projects/callab/tunkel/Negation2.0/Experiment2/contrastA/production-results/3JUDR1D0D6G4MF9B8WR1AFVRI74Q28-3LRKMWOKB66GMR8WLUFGPS2M1GDZ2D.json
20731.99999999997,pompom,NA,215392,4,C,4,unknown,34,/Users/dan/Projects/callab/tunkel/Negation2.0/Experiment2/contrastA/production-results/3JUDR1D0D6G4MF9B8WR1AFVRI74Q28-3LRKMWOKB66GMR8WLUFGPS2M1GDZ2D.json
23899.99999999962,Circular Saws,NA,241905,5,I,1,unknown,34,/Users/dan/Projects/callab/tunkel/Negation2.0/Experiment2/contrastA/production-results/3JUDR1D0D6G4MF9B8WR1AFVRI74Q28-3LRKMWOKB66GMR8WLUFGPS2M1GDZ2D.json
5395.000000000466,spoon,NA,249158,6,16,G,known,34,/Users/dan/Projects/callab/tunkel/Negation2.0/Experiment2/contrastA/production-results/3JUDR1D0D6G4MF9B8WR1AFVRI74Q28-3LRKMWOKB66GMR8WLUFGPS2M1GDZ2D.json
8230.999999999767,butterfly,NA,259004,7,2,K,known,34,/Users/dan/Projects/callab/tunkel/Negation2.0/Experiment2/contrastA/production-results/3JUDR1D0D6G4MF9B8WR1AFVRI74Q28-3LRKMWOKB66GMR8WLUFGPS2M1GDZ2D.json
13097.999999999942,butterfly,NA,274745,8,9,K,known,34,/Users/dan/Projects/callab/tunkel/Negation2.0/Experiment2/contrastA/production-results/3JUDR1D0D6G4MF9B8WR1AFVRI74Q28-3LRKMWOKB66GMR8WLUFGPS2M1GDZ2D.json
24204.99999999994,black hairstreak,NA,299809,9,3,K,known,34,/Users/dan/Projects/callab/tunkel/Negation2.0/Experiment2/contrastA/production-results/3JUDR1D0D6G4MF9B8WR1AFVRI74Q28-3LRKMWOKB66GMR8WLUFGPS2M1GDZ2D.json
15202.000000001164,metal,NA,317649,10,K,15,unknown,34,/Users/dan/Projects/callab/tunkel/Negation2.0/Experiment2/contrastA/production-results/3JUDR1D0D6G4MF9B8WR1AFVRI74Q28-3LRKMWOKB66GMR8WLUFGPS2M1GDZ2D.json
17755.99999999936,gun barrel,NA,337513,11,N,6,unknown,34,/Users/dan/Projects/callab/tunkel/Negation2.0/Experiment2/contrastA/production-results/3JUDR1D0D6G4MF9B8WR1AFVRI74Q28-3LRKMWOKB66GMR8WLUFGPS2M1GDZ2D.json
3057.9999999990687,cat,NA,341938,12,12,B,known,34,/Users/dan/Projects/callab/tunkel/Negation2.0/Experiment2/contrastA/production-results/3JUDR1D0D6G4MF9B8WR1AFVRI74Q28-3LRKMWOKB66GMR8WLUFGPS2M1GDZ2D.json
22207.99999999872,Impatiens,NA,366008,13,M,11,unknown,34,/Users/dan/Projects/callab/tunkel/Negation2.0/Experiment2/contrastA/production-results/3JUDR1D0D6G4MF9B8WR1AFVRI74Q28-3LRKMWOKB66GMR8WLUFGPS2M1GDZ2D.json
3704.0000000015134,apple,NA,371319,14,10,A,known,34,/Users/dan/Projects/callab/tunkel/Negation2.0/Experiment2/contrastA/production-results/3JUDR1D0D6G4MF9B8WR1AFVRI74Q28-3LRKMWOKB66GMR8WLUFGPS2M1GDZ2D.json
29603.00000000099,Monochrome,NA,402530,15,D,8,unknown,34,/Users/dan/Projects/callab/tunkel/Negation2.0/Experiment2/contrastA/production-results/3JUDR1D0D6G4MF9B8WR1AFVRI74Q28-3LRKMWOKB66GMR8WLUFGPS2M1GDZ2D.json
10257.999999999825,monochrome,NA,413897,16,L,8,unknown,34,/Users/dan/Projects/callab/tunkel/Negation2.0/Experiment2/contrastA/production-results/3JUDR1D0D6G4MF9B8WR1AFVRI74Q28-3LRKMWOKB66GMR8WLUFGPS2M1GDZ2D.json
18443.999999999476,Monochrome,NA,434453,17,F,8,unknown,34,/Users/dan/Projects/callab/tunkel/Negation2.0/Experiment2/contrastA/production-results/3JUDR1D0D6G4MF9B8WR1AFVRI74Q28-3LRKMWOKB66GMR8WLUFGPS2M1GDZ2D.json
20226.999999998952,Eastern white pine,NA,456557,18,8,J,known,34,/Users/dan/Projects/callab/tunkel/Negation2.0/Experiment2/contrastA/production-results/3JUDR1D0D6G4MF9B8WR1AFVRI74Q28-3LRKMWOKB66GMR8WLUFGPS2M1GDZ2D.json
4998.310000002617,bird,NA,1689275,1,practiceDistractor1,practiceTarget1,practice,33,/Users/dan/Projects/callab/tunkel/Negation2.0/Experiment2/contrastA/production-results/3JUDR1D0D6G4MF9B8WR1AFVRI74Q28-3M0BCWMB8WL6G93NT0OKRHB8EKMWBM.json
7168.445000002859,plane,NA,1697562,2,practiceDistractor2,practiceTarget2,practice,33,/Users/dan/Projects/callab/tunkel/Negation2.0/Experiment2/contrastA/production-results/3JUDR1D0D6G4MF9B8WR1AFVRI74Q28-3M0BCWMB8WL6G93NT0OKRHB8EKMWBM.json
3079.6549999976996,mug,NA,1703952,3,10,M,known,33,/Users/dan/Projects/callab/tunkel/Negation2.0/Experiment2/contrastA/production-results/3JUDR1D0D6G4MF9B8WR1AFVRI74Q28-3M0BCWMB8WL6G93NT0OKRHB8EKMWBM.json
12473.020000001416,NOT fork,NA,1718542,4,G,11,unknown,33,/Users/dan/Projects/callab/tunkel/Negation2.0/Experiment2/contrastA/production-results/3JUDR1D0D6G4MF9B8WR1AFVRI74Q28-3M0BCWMB8WL6G93NT0OKRHB8EKMWBM.json
12913.710000000661,Its NOT cat,NA,1732819,5,B,8,unknown,33,/Users/dan/Projects/callab/tunkel/Negation2.0/Experiment2/contrastA/production-results/3JUDR1D0D6G4MF9B8WR1AFVRI74Q28-3M0BCWMB8WL6G93NT0OKRHB8EKMWBM.json
2759.37500000163,ring,NA,1736942,6,2,F,known,33,/Users/dan/Projects/callab/tunkel/Negation2.0/Experiment2/contrastA/production-results/3JUDR1D0D6G4MF9B8WR1AFVRI74Q28-3M0BCWMB8WL6G93NT0OKRHB8EKMWBM.json
8395.455000001704,dumbell like thing,NA,1746952,7,5,J,known,33,/Users/dan/Projects/callab/tunkel/Negation2.0/Experiment2/contrastA/production-results/3JUDR1D0D6G4MF9B8WR1AFVRI74Q28-3M0BCWMB8WL6G93NT0OKRHB8EKMWBM.json
5091.840000001015,tree,NA,1752911,8,9,J,known,33,/Users/dan/Projects/callab/tunkel/Negation2.0/Experiment2/contrastA/production-results/3JUDR1D0D6G4MF9B8WR1AFVRI74Q28-3M0BCWMB8WL6G93NT0OKRHB8EKMWBM.json
2975.484999999171,tree,NA,1757253,9,12,J,known,33,/Users/dan/Projects/callab/tunkel/Negation2.0/Experiment2/contrastA/production-results/3JUDR1D0D6G4MF9B8WR1AFVRI74Q28-3M0BCWMB8WL6G93NT0OKRHB8EKMWBM.json
29512.220000000438,donut like  white thing,NA,1789880,10,J,4,unknown,33,/Users/dan/Projects/callab/tunkel/Negation2.0/Experiment2/contrastA/production-results/3JUDR1D0D6G4MF9B8WR1AFVRI74Q28-3M0BCWMB8WL6G93NT0OKRHB8EKMWBM.json
29419.855000000214,spiky objects which are connected,NA,1820416,11,H,1,unknown,33,/Users/dan/Projects/callab/tunkel/Negation2.0/Experiment2/contrastA/production-results/3JUDR1D0D6G4MF9B8WR1AFVRI74Q28-3M0BCWMB8WL6G93NT0OKRHB8EKMWBM.json
3987.37000000244,butterfly,NA,1826019,12,3,K,known,33,/Users/dan/Projects/callab/tunkel/Negation2.0/Experiment2/contrastA/production-results/3JUDR1D0D6G4MF9B8WR1AFVRI74Q28-3M0BCWMB8WL6G93NT0OKRHB8EKMWBM.json
11170.310000001453,not pen,NA,1838557,13,D,6,unknown,33,/Users/dan/Projects/callab/tunkel/Negation2.0/Experiment2/contrastA/production-results/3JUDR1D0D6G4MF9B8WR1AFVRI74Q28-3M0BCWMB8WL6G93NT0OKRHB8EKMWBM.json
2375.0749999999534,car,NA,1843547,14,16,I,known,33,/Users/dan/Projects/callab/tunkel/Negation2.0/Experiment2/contrastA/production-results/3JUDR1D0D6G4MF9B8WR1AFVRI74Q28-3M0BCWMB8WL6G93NT0OKRHB8EKMWBM.json
8037.165000001434,not flower,NA,1853698,15,L,7,unknown,33,/Users/dan/Projects/callab/tunkel/Negation2.0/Experiment2/contrastA/production-results/3JUDR1D0D6G4MF9B8WR1AFVRI74Q28-3M0BCWMB8WL6G93NT0OKRHB8EKMWBM.json
5277.805000001565,not shoe,NA,1861592,16,C,7,unknown,33,/Users/dan/Projects/callab/tunkel/Negation2.0/Experiment2/contrastA/production-results/3JUDR1D0D6G4MF9B8WR1AFVRI74Q28-3M0BCWMB8WL6G93NT0OKRHB8EKMWBM.json
6764.930000001099,not chair,NA,1869223,17,E,7,unknown,33,/Users/dan/Projects/callab/tunkel/Negation2.0/Experiment2/contrastA/production-results/3JUDR1D0D6G4MF9B8WR1AFVRI74Q28-3M0BCWMB8WL6G93NT0OKRHB8EKMWBM.json
4232.734999997774,apple,NA,1874324,18,7,A,known,33,/Users/dan/Projects/callab/tunkel/Negation2.0/Experiment2/contrastA/production-results/3JUDR1D0D6G4MF9B8WR1AFVRI74Q28-3M0BCWMB8WL6G93NT0OKRHB8EKMWBM.json
3537.2949999873526,bird,NA,61134,1,practiceDistractor1,practiceTarget1,practice,16,/Users/dan/Projects/callab/tunkel/Negation2.0/Experiment2/contrastA/production-results/3JUDR1D0D6G4MF9B8WR1AFVRI74Q28-3NGI5ARFTUUFJ2OUFHH0TBQ3ZBSP11.json
8846.595000009984,plane,NA,72087,2,practiceDistractor2,practiceTarget2,practice,16,/Users/dan/Projects/callab/tunkel/Negation2.0/Experiment2/contrastA/production-results/3JUDR1D0D6G4MF9B8WR1AFVRI74Q28-3NGI5ARFTUUFJ2OUFHH0TBQ3ZBSP11.json
4963.505000050645,merow,NA,81031,3,2,B,known,16,/Users/dan/Projects/callab/tunkel/Negation2.0/Experiment2/contrastA/production-results/3JUDR1D0D6G4MF9B8WR1AFVRI74Q28-3NGI5ARFTUUFJ2OUFHH0TBQ3ZBSP11.json
5917.245000018738,hot air,NA,89054,4,D,16,unknown,16,/Users/dan/Projects/callab/tunkel/Negation2.0/Experiment2/contrastA/production-results/3JUDR1D0D6G4MF9B8WR1AFVRI74Q28-3NGI5ARFTUUFJ2OUFHH0TBQ3ZBSP11.json
7256.374999997206,crown,NA,98167,5,A,3,unknown,16,/Users/dan/Projects/callab/tunkel/Negation2.0/Experiment2/contrastA/production-results/3JUDR1D0D6G4MF9B8WR1AFVRI74Q28-3NGI5ARFTUUFJ2OUFHH0TBQ3ZBSP11.json
3279.305000032764,dice,NA,104055,6,9,H,known,16,/Users/dan/Projects/callab/tunkel/Negation2.0/Experiment2/contrastA/production-results/3JUDR1D0D6G4MF9B8WR1AFVRI74Q28-3NGI5ARFTUUFJ2OUFHH0TBQ3ZBSP11.json
2248.699999996461,ring,NA,107160,7,11,F,known,16,/Users/dan/Projects/callab/tunkel/Negation2.0/Experiment2/contrastA/production-results/3JUDR1D0D6G4MF9B8WR1AFVRI74Q28-3NGI5ARFTUUFJ2OUFHH0TBQ3ZBSP11.json
2398.7750000087544,ring,NA,110415,8,1,F,known,16,/Users/dan/Projects/callab/tunkel/Negation2.0/Experiment2/contrastA/production-results/3JUDR1D0D6G4MF9B8WR1AFVRI74Q28-3NGI5ARFTUUFJ2OUFHH0TBQ3ZBSP11.json
2133.994999981951,ring,NA,115655,9,8,F,known,16,/Users/dan/Projects/callab/tunkel/Negation2.0/Experiment2/contrastA/production-results/3JUDR1D0D6G4MF9B8WR1AFVRI74Q28-3NGI5ARFTUUFJ2OUFHH0TBQ3ZBSP11.json
6693.109999992885,fuzzy donut,NA,124455,10,F,4,unknown,16,/Users/dan/Projects/callab/tunkel/Negation2.0/Experiment2/contrastA/production-results/3JUDR1D0D6G4MF9B8WR1AFVRI74Q28-3NGI5ARFTUUFJ2OUFHH0TBQ3ZBSP11.json
4077.4300000048243,blocks,NA,131639,11,J,15,unknown,16,/Users/dan/Projects/callab/tunkel/Negation2.0/Experiment2/contrastA/production-results/3JUDR1D0D6G4MF9B8WR1AFVRI74Q28-3NGI5ARFTUUFJ2OUFHH0TBQ3ZBSP11.json
4009.66999999946,butterfly,NA,137255,12,12,K,known,16,/Users/dan/Projects/callab/tunkel/Negation2.0/Experiment2/contrastA/production-results/3JUDR1D0D6G4MF9B8WR1AFVRI74Q28-3NGI5ARFTUUFJ2OUFHH0TBQ3ZBSP11.json
3530.70999996271,barbell,NA,142143,13,G,5,unknown,16,/Users/dan/Projects/callab/tunkel/Negation2.0/Experiment2/contrastA/production-results/3JUDR1D0D6G4MF9B8WR1AFVRI74Q28-3NGI5ARFTUUFJ2OUFHH0TBQ3ZBSP11.json
5920.724999974482,cup,NA,148920,14,10,M,known,16,/Users/dan/Projects/callab/tunkel/Negation2.0/Experiment2/contrastA/production-results/3JUDR1D0D6G4MF9B8WR1AFVRI74Q28-3NGI5ARFTUUFJ2OUFHH0TBQ3ZBSP11.json
9705.249999999069,weird doohicky,NA,161234,15,N,7,unknown,16,/Users/dan/Projects/callab/tunkel/Negation2.0/Experiment2/contrastA/production-results/3JUDR1D0D6G4MF9B8WR1AFVRI74Q28-3NGI5ARFTUUFJ2OUFHH0TBQ3ZBSP11.json
4899.420000030659,weird doohicky,NA,169240,16,E,7,unknown,16,/Users/dan/Projects/callab/tunkel/Negation2.0/Experiment2/contrastA/production-results/3JUDR1D0D6G4MF9B8WR1AFVRI74Q28-3NGI5ARFTUUFJ2OUFHH0TBQ3ZBSP11.json
5060.089999984484,tunnel,NA,175408,17,I,7,unknown,16,/Users/dan/Projects/callab/tunkel/Negation2.0/Experiment2/contrastA/production-results/3JUDR1D0D6G4MF9B8WR1AFVRI74Q28-3NGI5ARFTUUFJ2OUFHH0TBQ3ZBSP11.json
3785.9150000149384,shoe,NA,180808,18,7,C,known,16,/Users/dan/Projects/callab/tunkel/Negation2.0/Experiment2/contrastA/production-results/3JUDR1D0D6G4MF9B8WR1AFVRI74Q28-3NGI5ARFTUUFJ2OUFHH0TBQ3ZBSP11.json
3566.4799999794923,bird,NA,70081,1,practiceDistractor1,practiceTarget1,practice,12,/Users/dan/Projects/callab/tunkel/Negation2.0/Experiment2/contrastA/production-results/3JUDR1D0D6G4MF9B8WR1AFVRI74Q28-3TVSS0C0E2P6CVX4TMF5RBHUKRMTW9.json
4844.310000014957,plane,NA,75782,2,practiceDistractor2,practiceTarget2,practice,12,/Users/dan/Projects/callab/tunkel/Negation2.0/Experiment2/contrastA/production-results/3JUDR1D0D6G4MF9B8WR1AFVRI74Q28-3TVSS0C0E2P6CVX4TMF5RBHUKRMTW9.json
2862.8850000095554,cat,NA,81377,3,4,B,known,12,/Users/dan/Projects/callab/tunkel/Negation2.0/Experiment2/contrastA/production-results/3JUDR1D0D6G4MF9B8WR1AFVRI74Q28-3TVSS0C0E2P6CVX4TMF5RBHUKRMTW9.json
2825.714999984484,art,NA,86059,4,J,8,unknown,12,/Users/dan/Projects/callab/tunkel/Negation2.0/Experiment2/contrastA/production-results/3JUDR1D0D6G4MF9B8WR1AFVRI74Q28-3TVSS0C0E2P6CVX4TMF5RBHUKRMTW9.json
9158.830000029411,piece,NA,97073,5,G,3,unknown,12,/Users/dan/Projects/callab/tunkel/Negation2.0/Experiment2/contrastA/production-results/3JUDR1D0D6G4MF9B8WR1AFVRI74Q28-3TVSS0C0E2P6CVX4TMF5RBHUKRMTW9.json
2882.67999998061,flower,NA,102062,6,7,L,known,12,/Users/dan/Projects/callab/tunkel/Negation2.0/Experiment2/contrastA/production-results/3JUDR1D0D6G4MF9B8WR1AFVRI74Q28-3TVSS0C0E2P6CVX4TMF5RBHUKRMTW9.json
3988.4799999999814,furniture,NA,107404,7,12,E,known,12,/Users/dan/Projects/callab/tunkel/Negation2.0/Experiment2/contrastA/production-results/3JUDR1D0D6G4MF9B8WR1AFVRI74Q28-3TVSS0C0E2P6CVX4TMF5RBHUKRMTW9.json
2414.6400000317954,chair,NA,112425,8,2,E,known,12,/Users/dan/Projects/callab/tunkel/Negation2.0/Experiment2/contrastA/production-results/3JUDR1D0D6G4MF9B8WR1AFVRI74Q28-3TVSS0C0E2P6CVX4TMF5RBHUKRMTW9.json
1823.4349999693222,chair,NA,115354,9,16,E,known,12,/Users/dan/Projects/callab/tunkel/Negation2.0/Experiment2/contrastA/production-results/3JUDR1D0D6G4MF9B8WR1AFVRI74Q28-3TVSS0C0E2P6CVX4TMF5RBHUKRMTW9.json
2867.4600000376813,art,NA,121330,10,E,5,unknown,12,/Users/dan/Projects/callab/tunkel/Negation2.0/Experiment2/contrastA/production-results/3JUDR1D0D6G4MF9B8WR1AFVRI74Q28-3TVSS0C0E2P6CVX4TMF5RBHUKRMTW9.json
2635.0999999558553,art,NA,127070,11,N,11,unknown,12,/Users/dan/Projects/callab/tunkel/Negation2.0/Experiment2/contrastA/production-results/3JUDR1D0D6G4MF9B8WR1AFVRI74Q28-3TVSS0C0E2P6CVX4TMF5RBHUKRMTW9.json
2235.0200000219047,dice,NA,130161,12,9,H,known,12,/Users/dan/Projects/callab/tunkel/Negation2.0/Experiment2/contrastA/production-results/3JUDR1D0D6G4MF9B8WR1AFVRI74Q28-3TVSS0C0E2P6CVX4TMF5RBHUKRMTW9.json
6651.270000031218,utensil,NA,139918,13,C,10,unknown,12,/Users/dan/Projects/callab/tunkel/Negation2.0/Experiment2/contrastA/production-results/3JUDR1D0D6G4MF9B8WR1AFVRI74Q28-3TVSS0C0E2P6CVX4TMF5RBHUKRMTW9.json
2787.0299999485724,apple,NA,145310,14,1,A,known,12,/Users/dan/Projects/callab/tunkel/Negation2.0/Experiment2/contrastA/production-results/3JUDR1D0D6G4MF9B8WR1AFVRI74Q28-3TVSS0C0E2P6CVX4TMF5RBHUKRMTW9.json
7749.269999971148,puzzle,NA,156165,15,I,15,unknown,12,/Users/dan/Projects/callab/tunkel/Negation2.0/Experiment2/contrastA/production-results/3JUDR1D0D6G4MF9B8WR1AFVRI74Q28-3TVSS0C0E2P6CVX4TMF5RBHUKRMTW9.json
2766.8999999877997,puzzle,NA,160037,16,F,15,unknown,12,/Users/dan/Projects/callab/tunkel/Negation2.0/Experiment2/contrastA/production-results/3JUDR1D0D6G4MF9B8WR1AFVRI74Q28-3TVSS0C0E2P6CVX4TMF5RBHUKRMTW9.json
2276.6300000366755,puzzle,NA,165421,17,M,15,unknown,12,/Users/dan/Projects/callab/tunkel/Negation2.0/Experiment2/contrastA/production-results/3JUDR1D0D6G4MF9B8WR1AFVRI74Q28-3TVSS0C0E2P6CVX4TMF5RBHUKRMTW9.json
2689.505000016652,pen,NA,170216,18,15,D,known,12,/Users/dan/Projects/callab/tunkel/Negation2.0/Experiment2/contrastA/production-results/3JUDR1D0D6G4MF9B8WR1AFVRI74Q28-3TVSS0C0E2P6CVX4TMF5RBHUKRMTW9.json
2434.0899996459484,bird,NA,81038,1,practiceDistractor1,practiceTarget1,practice,39,/Users/dan/Projects/callab/tunkel/Negation2.0/Experiment2/contrastA/production-results/3JUDR1D0D6G4MF9B8WR1AFVRI74Q28-3YGXWBAF716DHCC9XUEW79YZCCOC4O.json
1600.390000268817,plane,NA,84259,2,practiceDistractor2,practiceTarget2,practice,39,/Users/dan/Projects/callab/tunkel/Negation2.0/Experiment2/contrastA/production-results/3JUDR1D0D6G4MF9B8WR1AFVRI74Q28-3YGXWBAF716DHCC9XUEW79YZCCOC4O.json
1369.8499999009073,pen,NA,89187,3,1,D,known,39,/Users/dan/Projects/callab/tunkel/Negation2.0/Experiment2/contrastA/production-results/3JUDR1D0D6G4MF9B8WR1AFVRI74Q28-3YGXWBAF716DHCC9XUEW79YZCCOC4O.json
1630.1599997095764,toy,NA,92186,4,A,5,unknown,39,/Users/dan/Projects/callab/tunkel/Negation2.0/Experiment2/contrastA/production-results/3JUDR1D0D6G4MF9B8WR1AFVRI74Q28-3YGXWBAF716DHCC9XUEW79YZCCOC4O.json
2691.9599999673665,not cat,NA,97993,5,B,7,unknown,39,/Users/dan/Projects/callab/tunkel/Negation2.0/Experiment2/contrastA/production-results/3JUDR1D0D6G4MF9B8WR1AFVRI74Q28-3YGXWBAF716DHCC9XUEW79YZCCOC4O.json
1462.7649998292327,shoe,NA,100324,6,12,C,known,39,/Users/dan/Projects/callab/tunkel/Negation2.0/Experiment2/contrastA/production-results/3JUDR1D0D6G4MF9B8WR1AFVRI74Q28-3YGXWBAF716DHCC9XUEW79YZCCOC4O.json
1162.7949997782707,car,NA,103354,7,11,I,known,39,/Users/dan/Projects/callab/tunkel/Negation2.0/Experiment2/contrastA/production-results/3JUDR1D0D6G4MF9B8WR1AFVRI74Q28-3YGXWBAF716DHCC9XUEW79YZCCOC4O.json
1592.5799999386072,car,NA,108069,8,3,I,known,39,/Users/dan/Projects/callab/tunkel/Negation2.0/Experiment2/contrastA/production-results/3JUDR1D0D6G4MF9B8WR1AFVRI74Q28-3YGXWBAF716DHCC9XUEW79YZCCOC4O.json
1840.1999999769032,car,NA,112529,9,9,I,known,39,/Users/dan/Projects/callab/tunkel/Negation2.0/Experiment2/contrastA/production-results/3JUDR1D0D6G4MF9B8WR1AFVRI74Q28-3YGXWBAF716DHCC9XUEW79YZCCOC4O.json
5749.36500005424,not car,NA,119643,10,I,8,unknown,39,/Users/dan/Projects/callab/tunkel/Negation2.0/Experiment2/contrastA/production-results/3JUDR1D0D6G4MF9B8WR1AFVRI74Q28-3YGXWBAF716DHCC9XUEW79YZCCOC4O.json
2773.829999845475,thing,NA,123785,11,J,6,unknown,39,/Users/dan/Projects/callab/tunkel/Negation2.0/Experiment2/contrastA/production-results/3JUDR1D0D6G4MF9B8WR1AFVRI74Q28-3YGXWBAF716DHCC9XUEW79YZCCOC4O.json
1958.710000384599,die,NA,128357,12,10,H,known,39,/Users/dan/Projects/callab/tunkel/Negation2.0/Experiment2/contrastA/production-results/3JUDR1D0D6G4MF9B8WR1AFVRI74Q28-3YGXWBAF716DHCC9XUEW79YZCCOC4O.json
2234.2400001361966,toy,NA,133213,13,N,16,unknown,39,/Users/dan/Projects/callab/tunkel/Negation2.0/Experiment2/contrastA/production-results/3JUDR1D0D6G4MF9B8WR1AFVRI74Q28-3YGXWBAF716DHCC9XUEW79YZCCOC4O.json
1301.1750001460314,chair,NA,135377,14,2,E,known,39,/Users/dan/Projects/callab/tunkel/Negation2.0/Experiment2/contrastA/production-results/3JUDR1D0D6G4MF9B8WR1AFVRI74Q28-3YGXWBAF716DHCC9XUEW79YZCCOC4O.json
1935.724999755621,thibng,NA,138677,15,G,4,unknown,39,/Users/dan/Projects/callab/tunkel/Negation2.0/Experiment2/contrastA/production-results/3JUDR1D0D6G4MF9B8WR1AFVRI74Q28-3YGXWBAF716DHCC9XUEW79YZCCOC4O.json
1072.3700001835823,lskdfj,NA,140869,16,K,4,unknown,39,/Users/dan/Projects/callab/tunkel/Negation2.0/Experiment2/contrastA/production-results/3JUDR1D0D6G4MF9B8WR1AFVRI74Q28-3YGXWBAF716DHCC9XUEW79YZCCOC4O.json
1026.4650001190603,lkdjf,NA,144519,17,M,4,unknown,39,/Users/dan/Projects/callab/tunkel/Negation2.0/Experiment2/contrastA/production-results/3JUDR1D0D6G4MF9B8WR1AFVRI74Q28-3YGXWBAF716DHCC9XUEW79YZCCOC4O.json
1537.3949999921024,ring,NA,147674,18,4,F,known,39,/Users/dan/Projects/callab/tunkel/Negation2.0/Experiment2/contrastA/production-results/3JUDR1D0D6G4MF9B8WR1AFVRI74Q28-3YGXWBAF716DHCC9XUEW79YZCCOC4O.json
3618.9500000327826,bird,NA,57239,1,practiceDistractor1,practiceTarget1,practice,7,/Users/dan/Projects/callab/tunkel/Negation2.0/Experiment2/contrastB/production-results/34R0BODSP1O7O92THOYZE59PJE85ED-30OG32W0SV0E0I6TBQZNW642O5VNEM.json
4059.4099999871105,aeroplane,NA,63408,2,practiceDistractor2,practiceTarget2,practice,7,/Users/dan/Projects/callab/tunkel/Negation2.0/Experiment2/contrastB/production-results/34R0BODSP1O7O92THOYZE59PJE85ED-30OG32W0SV0E0I6TBQZNW642O5VNEM.json
8618.405000073835,art,NA,75327,3,K,12,unknown,7,/Users/dan/Projects/callab/tunkel/Negation2.0/Experiment2/contrastB/production-results/34R0BODSP1O7O92THOYZE59PJE85ED-30OG32W0SV0E0I6TBQZNW642O5VNEM.json
2940.140000078827,shoe,NA,80385,4,7,C,known,7,/Users/dan/Projects/callab/tunkel/Negation2.0/Experiment2/contrastB/production-results/34R0BODSP1O7O92THOYZE59PJE85ED-30OG32W0SV0E0I6TBQZNW642O5VNEM.json
4047.524999943562,art,NA,86566,5,M,3,unknown,7,/Users/dan/Projects/callab/tunkel/Negation2.0/Experiment2/contrastB/production-results/34R0BODSP1O7O92THOYZE59PJE85ED-30OG32W0SV0E0I6TBQZNW642O5VNEM.json
2572.1299999859184,cat,NA,91750,6,9,B,known,7,/Users/dan/Projects/callab/tunkel/Negation2.0/Experiment2/contrastB/production-results/34R0BODSP1O7O92THOYZE59PJE85ED-30OG32W0SV0E0I6TBQZNW642O5VNEM.json
23907.780000008643,art,NA,117017,7,H,4,unknown,7,/Users/dan/Projects/callab/tunkel/Negation2.0/Experiment2/contrastB/production-results/34R0BODSP1O7O92THOYZE59PJE85ED-30OG32W0SV0E0I6TBQZNW642O5VNEM.json
5278.460000059567,art,NA,123903,8,F,4,unknown,7,/Users/dan/Projects/callab/tunkel/Negation2.0/Experiment2/contrastB/production-results/34R0BODSP1O7O92THOYZE59PJE85ED-30OG32W0SV0E0I6TBQZNW642O5VNEM.json
2906.965000089258,art,NA,128669,9,D,4,unknown,7,/Users/dan/Projects/callab/tunkel/Negation2.0/Experiment2/contrastB/production-results/34R0BODSP1O7O92THOYZE59PJE85ED-30OG32W0SV0E0I6TBQZNW642O5VNEM.json
3138.0049999570474,tree,NA,132676,10,4,J,known,7,/Users/dan/Projects/callab/tunkel/Negation2.0/Experiment2/contrastB/production-results/34R0BODSP1O7O92THOYZE59PJE85ED-30OG32W0SV0E0I6TBQZNW642O5VNEM.json
3525.599999935366,flower,NA,138311,11,8,L,known,7,/Users/dan/Projects/callab/tunkel/Negation2.0/Experiment2/contrastB/production-results/34R0BODSP1O7O92THOYZE59PJE85ED-30OG32W0SV0E0I6TBQZNW642O5VNEM.json
3042.295000050217,at,NA,143477,12,A,10,unknown,7,/Users/dan/Projects/callab/tunkel/Negation2.0/Experiment2/contrastB/production-results/34R0BODSP1O7O92THOYZE59PJE85ED-30OG32W0SV0E0I6TBQZNW642O5VNEM.json
4905.70999996271,bricks,NA,149990,13,I,15,unknown,7,/Users/dan/Projects/callab/tunkel/Negation2.0/Experiment2/contrastB/production-results/34R0BODSP1O7O92THOYZE59PJE85ED-30OG32W0SV0E0I6TBQZNW642O5VNEM.json
2812.6449999399483,fork,NA,154415,14,6,G,known,7,/Users/dan/Projects/callab/tunkel/Negation2.0/Experiment2/contrastB/production-results/34R0BODSP1O7O92THOYZE59PJE85ED-30OG32W0SV0E0I6TBQZNW642O5VNEM.json
3760.6249999953434,scorpion,NA,160805,15,5,N,known,7,/Users/dan/Projects/callab/tunkel/Negation2.0/Experiment2/contrastB/production-results/34R0BODSP1O7O92THOYZE59PJE85ED-30OG32W0SV0E0I6TBQZNW642O5VNEM.json
4350.595000083558,scorpion,NA,168264,16,2,N,known,7,/Users/dan/Projects/callab/tunkel/Negation2.0/Experiment2/contrastB/production-results/34R0BODSP1O7O92THOYZE59PJE85ED-30OG32W0SV0E0I6TBQZNW642O5VNEM.json
3974.44500005804,scorpion,NA,174864,17,11,N,known,7,/Users/dan/Projects/callab/tunkel/Negation2.0/Experiment2/contrastB/production-results/34R0BODSP1O7O92THOYZE59PJE85ED-30OG32W0SV0E0I6TBQZNW642O5VNEM.json
2974.7600000118837,art,NA,179455,18,N,1,unknown,7,/Users/dan/Projects/callab/tunkel/Negation2.0/Experiment2/contrastB/production-results/34R0BODSP1O7O92THOYZE59PJE85ED-30OG32W0SV0E0I6TBQZNW642O5VNEM.json
8005.3850000258535,bird,NA,111484,1,practiceDistractor1,practiceTarget1,practice,9,/Users/dan/Projects/callab/tunkel/Negation2.0/Experiment2/contrastB/production-results/34R0BODSP1O7O92THOYZE59PJE85ED-3PM8NZGV8Z589FA2MNHWOPKE9MTXQS.json
7531.914999999572,plane,NA,122120,2,practiceDistractor2,practiceTarget2,practice,9,/Users/dan/Projects/callab/tunkel/Negation2.0/Experiment2/contrastB/production-results/34R0BODSP1O7O92THOYZE59PJE85ED-3PM8NZGV8Z589FA2MNHWOPKE9MTXQS.json
7801.880000042729,not car,NA,138587,3,I,7,unknown,9,/Users/dan/Projects/callab/tunkel/Negation2.0/Experiment2/contrastB/production-results/34R0BODSP1O7O92THOYZE59PJE85ED-3PM8NZGV8Z589FA2MNHWOPKE9MTXQS.json
2849.2350000306033,cat,NA,143040,4,6,B,known,9,/Users/dan/Projects/callab/tunkel/Negation2.0/Experiment2/contrastB/production-results/34R0BODSP1O7O92THOYZE59PJE85ED-3PM8NZGV8Z589FA2MNHWOPKE9MTXQS.json
8676.500000001397,not pen,NA,153320,5,D,16,unknown,9,/Users/dan/Projects/callab/tunkel/Negation2.0/Experiment2/contrastB/production-results/34R0BODSP1O7O92THOYZE59PJE85ED-3PM8NZGV8Z589FA2MNHWOPKE9MTXQS.json
5165.314999991097,butterfly,NA,160588,6,8,K,known,9,/Users/dan/Projects/callab/tunkel/Negation2.0/Experiment2/contrastB/production-results/34R0BODSP1O7O92THOYZE59PJE85ED-3PM8NZGV8Z589FA2MNHWOPKE9MTXQS.json
6245.439999969676,dog toy,NA,169437,7,L,1,unknown,9,/Users/dan/Projects/callab/tunkel/Negation2.0/Experiment2/contrastB/production-results/34R0BODSP1O7O92THOYZE59PJE85ED-3PM8NZGV8Z589FA2MNHWOPKE9MTXQS.json
9213.8949999935,not shoe,NA,180505,8,C,1,unknown,9,/Users/dan/Projects/callab/tunkel/Negation2.0/Experiment2/contrastB/production-results/34R0BODSP1O7O92THOYZE59PJE85ED-3PM8NZGV8Z589FA2MNHWOPKE9MTXQS.json
4241.150000016205,not chair,NA,186599,9,E,1,unknown,9,/Users/dan/Projects/callab/tunkel/Negation2.0/Experiment2/contrastB/production-results/34R0BODSP1O7O92THOYZE59PJE85ED-3PM8NZGV8Z589FA2MNHWOPKE9MTXQS.json
2963.9850000385195,cup,NA,192666,10,1,M,known,9,/Users/dan/Projects/callab/tunkel/Negation2.0/Experiment2/contrastB/production-results/34R0BODSP1O7O92THOYZE59PJE85ED-3PM8NZGV8Z589FA2MNHWOPKE9MTXQS.json
3081.2999999616295,crab,NA,198350,11,12,N,known,9,/Users/dan/Projects/callab/tunkel/Negation2.0/Experiment2/contrastB/production-results/34R0BODSP1O7O92THOYZE59PJE85ED-3PM8NZGV8Z589FA2MNHWOPKE9MTXQS.json
5057.98500002129,not dice,NA,206512,12,H,2,unknown,9,/Users/dan/Projects/callab/tunkel/Negation2.0/Experiment2/contrastB/production-results/34R0BODSP1O7O92THOYZE59PJE85ED-3PM8NZGV8Z589FA2MNHWOPKE9MTXQS.json
4607.530000037514,not apple,NA,214223,13,A,3,unknown,9,/Users/dan/Projects/callab/tunkel/Negation2.0/Experiment2/contrastB/production-results/34R0BODSP1O7O92THOYZE59PJE85ED-3PM8NZGV8Z589FA2MNHWOPKE9MTXQS.json
3232.8700000070967,fork,NA,219310,14,11,G,known,9,/Users/dan/Projects/callab/tunkel/Negation2.0/Experiment2/contrastB/production-results/34R0BODSP1O7O92THOYZE59PJE85ED-3PM8NZGV8Z589FA2MNHWOPKE9MTXQS.json
2111.225000000559,tree,NA,224525,15,5,J,known,9,/Users/dan/Projects/callab/tunkel/Negation2.0/Experiment2/contrastB/production-results/34R0BODSP1O7O92THOYZE59PJE85ED-3PM8NZGV8Z589FA2MNHWOPKE9MTXQS.json
2287.190000002738,tree,NA,228665,16,4,J,known,9,/Users/dan/Projects/callab/tunkel/Negation2.0/Experiment2/contrastB/production-results/34R0BODSP1O7O92THOYZE59PJE85ED-3PM8NZGV8Z589FA2MNHWOPKE9MTXQS.json
2306.2599999830127,tree,NA,234076,17,15,J,known,9,/Users/dan/Projects/callab/tunkel/Negation2.0/Experiment2/contrastB/production-results/34R0BODSP1O7O92THOYZE59PJE85ED-3PM8NZGV8Z589FA2MNHWOPKE9MTXQS.json
4853.450000053272,not tree,NA,239784,18,J,9,unknown,9,/Users/dan/Projects/callab/tunkel/Negation2.0/Experiment2/contrastB/production-results/34R0BODSP1O7O92THOYZE59PJE85ED-3PM8NZGV8Z589FA2MNHWOPKE9MTXQS.json
4674.470000027213,bird,NA,68175,1,practiceDistractor1,practiceTarget1,practice,2,/Users/dan/Projects/callab/tunkel/Negation2.0/Experiment2/contrastB/production-results/3NFWQRSHVE3XAKR9TV1W0KLELO1FGN-34FNN24DCNY8GYHE7RFV9SWWFW15YU.json
4185.4049999965355,plane,NA,73725,2,practiceDistractor2,practiceTarget2,practice,2,/Users/dan/Projects/callab/tunkel/Negation2.0/Experiment2/contrastB/production-results/3NFWQRSHVE3XAKR9TV1W0KLELO1FGN-34FNN24DCNY8GYHE7RFV9SWWFW15YU.json
3498.7100000143982,blimp,NA,79406,3,I,16,unknown,2,/Users/dan/Projects/callab/tunkel/Negation2.0/Experiment2/contrastB/production-results/3NFWQRSHVE3XAKR9TV1W0KLELO1FGN-34FNN24DCNY8GYHE7RFV9SWWFW15YU.json
3583.63000000827,apple,NA,84348,4,11,A,known,2,/Users/dan/Projects/callab/tunkel/Negation2.0/Experiment2/contrastB/production-results/3NFWQRSHVE3XAKR9TV1W0KLELO1FGN-34FNN24DCNY8GYHE7RFV9SWWFW15YU.json
3792.1600000117905,thing,NA,88998,5,N,5,unknown,2,/Users/dan/Projects/callab/tunkel/Negation2.0/Experiment2/contrastB/production-results/3NFWQRSHVE3XAKR9TV1W0KLELO1FGN-34FNN24DCNY8GYHE7RFV9SWWFW15YU.json
2798.160000005737,die,NA,93407,6,9,H,known,2,/Users/dan/Projects/callab/tunkel/Negation2.0/Experiment2/contrastB/production-results/3NFWQRSHVE3XAKR9TV1W0KLELO1FGN-34FNN24DCNY8GYHE7RFV9SWWFW15YU.json
5563.12499998603,spikes,NA,101578,7,F,4,unknown,2,/Users/dan/Projects/callab/tunkel/Negation2.0/Experiment2/contrastB/production-results/3NFWQRSHVE3XAKR9TV1W0KLELO1FGN-34FNN24DCNY8GYHE7RFV9SWWFW15YU.json
2678.299999970477,spikes,NA,105367,8,E,4,unknown,2,/Users/dan/Projects/callab/tunkel/Negation2.0/Experiment2/contrastB/production-results/3NFWQRSHVE3XAKR9TV1W0KLELO1FGN-34FNN24DCNY8GYHE7RFV9SWWFW15YU.json
2088.385000010021,spikes,NA,109314,9,L,4,unknown,2,/Users/dan/Projects/callab/tunkel/Negation2.0/Experiment2/contrastB/production-results/3NFWQRSHVE3XAKR9TV1W0KLELO1FGN-34FNN24DCNY8GYHE7RFV9SWWFW15YU.json
2043.4499999973923,mug,NA,113217,10,4,M,known,2,/Users/dan/Projects/callab/tunkel/Negation2.0/Experiment2/contrastB/production-results/3NFWQRSHVE3XAKR9TV1W0KLELO1FGN-34FNN24DCNY8GYHE7RFV9SWWFW15YU.json
2154.080000007525,shoe,NA,117481,11,1,C,known,2,/Users/dan/Projects/callab/tunkel/Negation2.0/Experiment2/contrastB/production-results/3NFWQRSHVE3XAKR9TV1W0KLELO1FGN-34FNN24DCNY8GYHE7RFV9SWWFW15YU.json
2910.749999980908,thing,NA,121248,12,G,7,unknown,2,/Users/dan/Projects/callab/tunkel/Negation2.0/Experiment2/contrastB/production-results/3NFWQRSHVE3XAKR9TV1W0KLELO1FGN-34FNN24DCNY8GYHE7RFV9SWWFW15YU.json
3121.8700000317767,thing,NA,125728,13,B,2,unknown,2,/Users/dan/Projects/callab/tunkel/Negation2.0/Experiment2/contrastB/production-results/3NFWQRSHVE3XAKR9TV1W0KLELO1FGN-34FNN24DCNY8GYHE7RFV9SWWFW15YU.json
2247.655000013765,butterfly,NA,129585,14,10,K,known,2,/Users/dan/Projects/callab/tunkel/Negation2.0/Experiment2/contrastB/production-results/3NFWQRSHVE3XAKR9TV1W0KLELO1FGN-34FNN24DCNY8GYHE7RFV9SWWFW15YU.json
1548.5449999687262,pen,NA,131993,15,12,D,known,2,/Users/dan/Projects/callab/tunkel/Negation2.0/Experiment2/contrastB/production-results/3NFWQRSHVE3XAKR9TV1W0KLELO1FGN-34FNN24DCNY8GYHE7RFV9SWWFW15YU.json
1532.535000005737,pen,NA,134632,16,15,D,known,2,/Users/dan/Projects/callab/tunkel/Negation2.0/Experiment2/contrastB/production-results/3NFWQRSHVE3XAKR9TV1W0KLELO1FGN-34FNN24DCNY8GYHE7RFV9SWWFW15YU.json
1327.3150000022724,pen,NA,139064,17,8,D,known,2,/Users/dan/Projects/callab/tunkel/Negation2.0/Experiment2/contrastB/production-results/3NFWQRSHVE3XAKR9TV1W0KLELO1FGN-34FNN24DCNY8GYHE7RFV9SWWFW15YU.json
1886.9399999966845,thing,NA,142560,18,D,3,unknown,2,/Users/dan/Projects/callab/tunkel/Negation2.0/Experiment2/contrastB/production-results/3NFWQRSHVE3XAKR9TV1W0KLELO1FGN-34FNN24DCNY8GYHE7RFV9SWWFW15YU.json
7830.975000048056,bird,NA,95096,1,practiceDistractor1,practiceTarget1,practice,35,/Users/dan/Projects/callab/tunkel/Negation2.0/Experiment2/contrastB/production-results/3NFWQRSHVE3XAKR9TV1W0KLELO1FGN-37TD41K0AIYWJXEKNVAE5CE5QSQSCA.json
4295.05499987863,plane,NA,102007,2,practiceDistractor2,practiceTarget2,practice,35,/Users/dan/Projects/callab/tunkel/Negation2.0/Experiment2/contrastB/production-results/3NFWQRSHVE3XAKR9TV1W0KLELO1FGN-37TD41K0AIYWJXEKNVAE5CE5QSQSCA.json
13626.0150000453,blimp,NA,119886,3,H,16,unknown,35,/Users/dan/Projects/callab/tunkel/Negation2.0/Experiment2/contrastB/production-results/3NFWQRSHVE3XAKR9TV1W0KLELO1FGN-37TD41K0AIYWJXEKNVAE5CE5QSQSCA.json
3912.3449998442084,tree,NA,125662,4,8,J,known,35,/Users/dan/Projects/callab/tunkel/Negation2.0/Experiment2/contrastB/production-results/3NFWQRSHVE3XAKR9TV1W0KLELO1FGN-37TD41K0AIYWJXEKNVAE5CE5QSQSCA.json
18116.02000007406,rounded vase,NA,144894,5,M,2,unknown,35,/Users/dan/Projects/callab/tunkel/Negation2.0/Experiment2/contrastB/production-results/3NFWQRSHVE3XAKR9TV1W0KLELO1FGN-37TD41K0AIYWJXEKNVAE5CE5QSQSCA.json
3465.2700000442564,pen,NA,149471,6,11,D,known,35,/Users/dan/Projects/callab/tunkel/Negation2.0/Experiment2/contrastB/production-results/3NFWQRSHVE3XAKR9TV1W0KLELO1FGN-37TD41K0AIYWJXEKNVAE5CE5QSQSCA.json
11177.88999993354,the object with 3 points,NA,162014,7,B,9,unknown,35,/Users/dan/Projects/callab/tunkel/Negation2.0/Experiment2/contrastB/production-results/3NFWQRSHVE3XAKR9TV1W0KLELO1FGN-37TD41K0AIYWJXEKNVAE5CE5QSQSCA.json
7131.509999977425,object with 3 points,NA,170758,8,I,9,unknown,35,/Users/dan/Projects/callab/tunkel/Negation2.0/Experiment2/contrastB/production-results/3NFWQRSHVE3XAKR9TV1W0KLELO1FGN-37TD41K0AIYWJXEKNVAE5CE5QSQSCA.json
7008.51000007242,object with 3 points,NA,179629,9,N,9,unknown,35,/Users/dan/Projects/callab/tunkel/Negation2.0/Experiment2/contrastB/production-results/3NFWQRSHVE3XAKR9TV1W0KLELO1FGN-37TD41K0AIYWJXEKNVAE5CE5QSQSCA.json
4008.6900000460446,ring,NA,184502,10,9,F,known,35,/Users/dan/Projects/callab/tunkel/Negation2.0/Experiment2/contrastB/production-results/3NFWQRSHVE3XAKR9TV1W0KLELO1FGN-37TD41K0AIYWJXEKNVAE5CE5QSQSCA.json
3553.360000019893,shoe,NA,190670,11,10,C,known,35,/Users/dan/Projects/callab/tunkel/Negation2.0/Experiment2/contrastB/production-results/3NFWQRSHVE3XAKR9TV1W0KLELO1FGN-37TD41K0AIYWJXEKNVAE5CE5QSQSCA.json
4717.8700000513345,blocks,NA,198500,12,E,15,unknown,35,/Users/dan/Projects/callab/tunkel/Negation2.0/Experiment2/contrastB/production-results/3NFWQRSHVE3XAKR9TV1W0KLELO1FGN-37TD41K0AIYWJXEKNVAE5CE5QSQSCA.json
11038.135000038892,2 balls,NA,210901,13,A,1,unknown,35,/Users/dan/Projects/callab/tunkel/Negation2.0/Experiment2/contrastB/production-results/3NFWQRSHVE3XAKR9TV1W0KLELO1FGN-37TD41K0AIYWJXEKNVAE5CE5QSQSCA.json
3451.0349999181926,fork,NA,215215,14,3,G,known,35,/Users/dan/Projects/callab/tunkel/Negation2.0/Experiment2/contrastB/production-results/3NFWQRSHVE3XAKR9TV1W0KLELO1FGN-37TD41K0AIYWJXEKNVAE5CE5QSQSCA.json
4494.034999981523,butterfly,NA,222821,15,5,K,known,35,/Users/dan/Projects/callab/tunkel/Negation2.0/Experiment2/contrastB/production-results/3NFWQRSHVE3XAKR9TV1W0KLELO1FGN-37TD41K0AIYWJXEKNVAE5CE5QSQSCA.json
4284.68000004068,butterfly,NA,228719,16,12,K,known,35,/Users/dan/Projects/callab/tunkel/Negation2.0/Experiment2/contrastB/production-results/3NFWQRSHVE3XAKR9TV1W0KLELO1FGN-37TD41K0AIYWJXEKNVAE5CE5QSQSCA.json
4300.594999920577,butterfly,NA,234632,17,4,K,known,35,/Users/dan/Projects/callab/tunkel/Negation2.0/Experiment2/contrastB/production-results/3NFWQRSHVE3XAKR9TV1W0KLELO1FGN-37TD41K0AIYWJXEKNVAE5CE5QSQSCA.json
18266.340000089258,object with holes,NA,254014,18,K,6,unknown,35,/Users/dan/Projects/callab/tunkel/Negation2.0/Experiment2/contrastB/production-results/3NFWQRSHVE3XAKR9TV1W0KLELO1FGN-37TD41K0AIYWJXEKNVAE5CE5QSQSCA.json
11466.330000000075,pigeon,NA,1203891,1,practiceDistractor1,practiceTarget1,practice,22,/Users/dan/Projects/callab/tunkel/Negation2.0/Experiment2/contrastB/production-results/3NFWQRSHVE3XAKR9TV1W0KLELO1FGN-3E337GFOLAXCKW2KHLPBW9PE1LANG3.json
5301.114999999758,aeroplane,NA,1211802,2,practiceDistractor2,practiceTarget2,practice,22,/Users/dan/Projects/callab/tunkel/Negation2.0/Experiment2/contrastB/production-results/3NFWQRSHVE3XAKR9TV1W0KLELO1FGN-3E337GFOLAXCKW2KHLPBW9PE1LANG3.json
7449.310000000056,toy aeroplane,NA,1222419,3,M,5,unknown,22,/Users/dan/Projects/callab/tunkel/Negation2.0/Experiment2/contrastB/production-results/3NFWQRSHVE3XAKR9TV1W0KLELO1FGN-3E337GFOLAXCKW2KHLPBW9PE1LANG3.json
2528.4749999998603,car,NA,1227059,4,9,I,known,22,/Users/dan/Projects/callab/tunkel/Negation2.0/Experiment2/contrastB/production-results/3NFWQRSHVE3XAKR9TV1W0KLELO1FGN-3E337GFOLAXCKW2KHLPBW9PE1LANG3.json
3490.250000000233,scrap,NA,1232657,5,D,8,unknown,22,/Users/dan/Projects/callab/tunkel/Negation2.0/Experiment2/contrastB/production-results/3NFWQRSHVE3XAKR9TV1W0KLELO1FGN-3E337GFOLAXCKW2KHLPBW9PE1LANG3.json
3604.3649999999907,chair,NA,1238369,6,6,E,known,22,/Users/dan/Projects/callab/tunkel/Negation2.0/Experiment2/contrastB/production-results/3NFWQRSHVE3XAKR9TV1W0KLELO1FGN-3E337GFOLAXCKW2KHLPBW9PE1LANG3.json
4900.880000000121,toy,NA,1245378,7,N,16,unknown,22,/Users/dan/Projects/callab/tunkel/Negation2.0/Experiment2/contrastB/production-results/3NFWQRSHVE3XAKR9TV1W0KLELO1FGN-3E337GFOLAXCKW2KHLPBW9PE1LANG3.json
3030.1500000001397,toy,NA,1250265,8,K,16,unknown,22,/Users/dan/Projects/callab/tunkel/Negation2.0/Experiment2/contrastB/production-results/3NFWQRSHVE3XAKR9TV1W0KLELO1FGN-3E337GFOLAXCKW2KHLPBW9PE1LANG3.json
2646.844999999972,toy,NA,1254770,9,A,16,unknown,22,/Users/dan/Projects/callab/tunkel/Negation2.0/Experiment2/contrastB/production-results/3NFWQRSHVE3XAKR9TV1W0KLELO1FGN-3E337GFOLAXCKW2KHLPBW9PE1LANG3.json
3234.060000000056,shoe,NA,1260114,10,16,C,known,22,/Users/dan/Projects/callab/tunkel/Negation2.0/Experiment2/contrastB/production-results/3NFWQRSHVE3XAKR9TV1W0KLELO1FGN-3E337GFOLAXCKW2KHLPBW9PE1LANG3.json
3073.3050000001676,cat,NA,1264547,11,10,B,known,22,/Users/dan/Projects/callab/tunkel/Negation2.0/Experiment2/contrastB/production-results/3NFWQRSHVE3XAKR9TV1W0KLELO1FGN-3E337GFOLAXCKW2KHLPBW9PE1LANG3.json
3620,toy,NA,1270025,12,F,4,unknown,22,/Users/dan/Projects/callab/tunkel/Negation2.0/Experiment2/contrastB/production-results/3NFWQRSHVE3XAKR9TV1W0KLELO1FGN-3E337GFOLAXCKW2KHLPBW9PE1LANG3.json
3931.155000000028,scrap,NA,1274817,13,J,11,unknown,22,/Users/dan/Projects/callab/tunkel/Negation2.0/Experiment2/contrastB/production-results/3NFWQRSHVE3XAKR9TV1W0KLELO1FGN-3E337GFOLAXCKW2KHLPBW9PE1LANG3.json
8865.320000000065,sun flower,NA,1285289,14,2,L,known,22,/Users/dan/Projects/callab/tunkel/Negation2.0/Experiment2/contrastB/production-results/3NFWQRSHVE3XAKR9TV1W0KLELO1FGN-3E337GFOLAXCKW2KHLPBW9PE1LANG3.json
3473.6100000001024,fork,NA,1290873,15,1,G,known,22,/Users/dan/Projects/callab/tunkel/Negation2.0/Experiment2/contrastB/production-results/3NFWQRSHVE3XAKR9TV1W0KLELO1FGN-3E337GFOLAXCKW2KHLPBW9PE1LANG3.json
2888.875,fork,NA,1295873,16,12,G,known,22,/Users/dan/Projects/callab/tunkel/Negation2.0/Experiment2/contrastB/production-results/3NFWQRSHVE3XAKR9TV1W0KLELO1FGN-3E337GFOLAXCKW2KHLPBW9PE1LANG3.json
3825.0449999999255,fork,NA,1301809,17,7,G,known,22,/Users/dan/Projects/callab/tunkel/Negation2.0/Experiment2/contrastB/production-results/3NFWQRSHVE3XAKR9TV1W0KLELO1FGN-3E337GFOLAXCKW2KHLPBW9PE1LANG3.json
5692.4550000000745,toy,NA,1308611,18,G,15,unknown,22,/Users/dan/Projects/callab/tunkel/Negation2.0/Experiment2/contrastB/production-results/3NFWQRSHVE3XAKR9TV1W0KLELO1FGN-3E337GFOLAXCKW2KHLPBW9PE1LANG3.json
71280.00000002794,bird can fly,NA,1538412,1,practiceDistractor1,practiceTarget1,practice,19,/Users/dan/Projects/callab/tunkel/Negation2.0/Experiment2/contrastB/production-results/3NFWQRSHVE3XAKR9TV1W0KLELO1FGN-3IKZ72A5B5566W6P61JTEOP206ANF4.json
60233.00000000745,a flight,NA,1601750,2,practiceDistractor2,practiceTarget2,practice,19,/Users/dan/Projects/callab/tunkel/Negation2.0/Experiment2/contrastB/production-results/3NFWQRSHVE3XAKR9TV1W0KLELO1FGN-3IKZ72A5B5566W6P61JTEOP206ANF4.json
27111.000000033528,its a toy,NA,1634797,3,D,16,unknown,19,/Users/dan/Projects/callab/tunkel/Negation2.0/Experiment2/contrastB/production-results/3NFWQRSHVE3XAKR9TV1W0KLELO1FGN-3IKZ72A5B5566W6P61JTEOP206ANF4.json
22329.00000002701,chair,NA,1659733,4,15,E,known,19,/Users/dan/Projects/callab/tunkel/Negation2.0/Experiment2/contrastB/production-results/3NFWQRSHVE3XAKR9TV1W0KLELO1FGN-3IKZ72A5B5566W6P61JTEOP206ANF4.json
39366.999999969266,glass,NA,1700206,5,J,2,unknown,19,/Users/dan/Projects/callab/tunkel/Negation2.0/Experiment2/contrastB/production-results/3NFWQRSHVE3XAKR9TV1W0KLELO1FGN-3IKZ72A5B5566W6P61JTEOP206ANF4.json
16312.000000034459,cat,NA,1717623,6,4,B,known,19,/Users/dan/Projects/callab/tunkel/Negation2.0/Experiment2/contrastB/production-results/3NFWQRSHVE3XAKR9TV1W0KLELO1FGN-3IKZ72A5B5566W6P61JTEOP206ANF4.json
39321.99999992736,unknown,NA,1757800,7,L,3,unknown,19,/Users/dan/Projects/callab/tunkel/Negation2.0/Experiment2/contrastB/production-results/3NFWQRSHVE3XAKR9TV1W0KLELO1FGN-3IKZ72A5B5566W6P61JTEOP206ANF4.json
7773.0000000447035,unknown,NA,1766928,8,H,3,unknown,19,/Users/dan/Projects/callab/tunkel/Negation2.0/Experiment2/contrastB/production-results/3NFWQRSHVE3XAKR9TV1W0KLELO1FGN-3IKZ72A5B5566W6P61JTEOP206ANF4.json
35391.99999999255,shapeless vessel,NA,1804176,9,I,3,unknown,19,/Users/dan/Projects/callab/tunkel/Negation2.0/Experiment2/contrastB/production-results/3NFWQRSHVE3XAKR9TV1W0KLELO1FGN-3IKZ72A5B5566W6P61JTEOP206ANF4.json
16907.00000000652,fork,NA,1822938,10,3,G,known,19,/Users/dan/Projects/callab/tunkel/Negation2.0/Experiment2/contrastB/production-results/3NFWQRSHVE3XAKR9TV1W0KLELO1FGN-3IKZ72A5B5566W6P61JTEOP206ANF4.json
19926.99999990873,butterfly,NA,1844969,11,11,K,known,19,/Users/dan/Projects/callab/tunkel/Negation2.0/Experiment2/contrastB/production-results/3NFWQRSHVE3XAKR9TV1W0KLELO1FGN-3IKZ72A5B5566W6P61JTEOP206ANF4.json
22143.99999997113,tumbles,NA,1868217,12,C,5,unknown,19,/Users/dan/Projects/callab/tunkel/Negation2.0/Experiment2/contrastB/production-results/3NFWQRSHVE3XAKR9TV1W0KLELO1FGN-3IKZ72A5B5566W6P61JTEOP206ANF4.json
8123.00000002142,toy,NA,1877194,13,N,9,unknown,19,/Users/dan/Projects/callab/tunkel/Negation2.0/Experiment2/contrastB/production-results/3NFWQRSHVE3XAKR9TV1W0KLELO1FGN-3IKZ72A5B5566W6P61JTEOP206ANF4.json
4900.000000023283,ring,NA,1883451,14,10,F,known,19,/Users/dan/Projects/callab/tunkel/Negation2.0/Experiment2/contrastB/production-results/3NFWQRSHVE3XAKR9TV1W0KLELO1FGN-3IKZ72A5B5566W6P61JTEOP206ANF4.json
7707.9999999841675,cup,NA,1892762,15,1,M,known,19,/Users/dan/Projects/callab/tunkel/Negation2.0/Experiment2/contrastB/production-results/3NFWQRSHVE3XAKR9TV1W0KLELO1FGN-3IKZ72A5B5566W6P61JTEOP206ANF4.json
7081.99999993667,cup,NA,1901702,16,6,M,known,19,/Users/dan/Projects/callab/tunkel/Negation2.0/Experiment2/contrastB/production-results/3NFWQRSHVE3XAKR9TV1W0KLELO1FGN-3IKZ72A5B5566W6P61JTEOP206ANF4.json
5190.000000060536,mug,NA,1907996,17,7,M,known,19,/Users/dan/Projects/callab/tunkel/Negation2.0/Experiment2/contrastB/production-results/3NFWQRSHVE3XAKR9TV1W0KLELO1FGN-3IKZ72A5B5566W6P61JTEOP206ANF4.json
10154.000000096858,unknown,NA,1920003,18,M,8,unknown,19,/Users/dan/Projects/callab/tunkel/Negation2.0/Experiment2/contrastB/production-results/3NFWQRSHVE3XAKR9TV1W0KLELO1FGN-3IKZ72A5B5566W6P61JTEOP206ANF4.json
19432.0000000007,pigeon,NA,162556,1,practiceDistractor1,practiceTarget1,practice,28,/Users/dan/Projects/callab/tunkel/Negation2.0/Experiment2/contrastB/production-results/3NFWQRSHVE3XAKR9TV1W0KLELO1FGN-3J2UYBXQQM1727L742ER96GCZEX064.json
8877.000000007683,aeroplane,NA,172290,2,practiceDistractor2,practiceTarget2,practice,28,/Users/dan/Projects/callab/tunkel/Negation2.0/Experiment2/contrastB/production-results/3NFWQRSHVE3XAKR9TV1W0KLELO1FGN-3J2UYBXQQM1727L742ER96GCZEX064.json
9135.000000009313,Toy,NA,185660,3,A,1,unknown,28,/Users/dan/Projects/callab/tunkel/Negation2.0/Experiment2/contrastB/production-results/3NFWQRSHVE3XAKR9TV1W0KLELO1FGN-3J2UYBXQQM1727L742ER96GCZEX064.json
5872.000000003027,Fork,NA,192389,4,2,G,known,28,/Users/dan/Projects/callab/tunkel/Negation2.0/Experiment2/contrastB/production-results/3NFWQRSHVE3XAKR9TV1W0KLELO1FGN-3J2UYBXQQM1727L742ER96GCZEX064.json
11755.999999993946,Paper,NA,205007,5,E,8,unknown,28,/Users/dan/Projects/callab/tunkel/Negation2.0/Experiment2/contrastB/production-results/3NFWQRSHVE3XAKR9TV1W0KLELO1FGN-3J2UYBXQQM1727L742ER96GCZEX064.json
10399.00000000489,Christmas tree,NA,216764,6,9,J,known,28,/Users/dan/Projects/callab/tunkel/Negation2.0/Experiment2/contrastB/production-results/3NFWQRSHVE3XAKR9TV1W0KLELO1FGN-3J2UYBXQQM1727L742ER96GCZEX064.json
14648.0000000156,Bread,NA,233515,7,F,3,unknown,28,/Users/dan/Projects/callab/tunkel/Negation2.0/Experiment2/contrastB/production-results/3NFWQRSHVE3XAKR9TV1W0KLELO1FGN-3J2UYBXQQM1727L742ER96GCZEX064.json
5370.000000024447,Bread,NA,240740,8,D,3,unknown,28,/Users/dan/Projects/callab/tunkel/Negation2.0/Experiment2/contrastB/production-results/3NFWQRSHVE3XAKR9TV1W0KLELO1FGN-3J2UYBXQQM1727L742ER96GCZEX064.json
6244.999999995343,Bread,NA,249589,9,C,3,unknown,28,/Users/dan/Projects/callab/tunkel/Negation2.0/Experiment2/contrastB/production-results/3NFWQRSHVE3XAKR9TV1W0KLELO1FGN-3J2UYBXQQM1727L742ER96GCZEX064.json
6798.000000009779,Butterfly,NA,258494,10,3,K,known,28,/Users/dan/Projects/callab/tunkel/Negation2.0/Experiment2/contrastB/production-results/3NFWQRSHVE3XAKR9TV1W0KLELO1FGN-3J2UYBXQQM1727L742ER96GCZEX064.json
