rt,response,time_elapsed,trial,distractor,target,type,id
9310.100000000151,bird,61159,1,practiceDistractor1,practiceTarget1,practice,18
11740.624999999913,art,78415,3,4,11,known,18
8750.91999999994,KB,88695,5,10,6,known,18
10324.38000000002,bird,107031,8,8,7,known,18
7148.949999999793,plane,115287,10,7,5,known,18
18883.48499999984,dark puzzle,138439,13,B,D,unknown,18
66263.82500000001,plastic,207311,15,F,A,unknown,18
11883.83000000022,fan cover,220799,17,J,A,unknown,18
10403.600000000093,chef hat,232807,19,NA,NA,NA,18
16855.8250000001,folded piece,251767,21,NA,NA,NA,18
10959.345000000205,folded piece,264583,23,NA,NA,NA,18
8941.330000000133,folded piece,274879,25,NA,NA,NA,18
10349.499999999825,not the folded piece,288335,27,NA,NA,NA,18
5423.310000000114,butterfly,295615,29,NA,NA,NA,18
3396.555000000226,fork,300367,31,NA,NA,NA,18
6912.994999999704,pen,308638,33,NA,NA,NA,18
6016.849999999977,shoe,317262,35,NA,NA,NA,18
8510.780000000028,apple,327879,37,NA,NA,NA,18
3475.5,apple,333959,39,NA,NA,NA,18
3846.895000000135,apple,340911,41,NA,NA,NA,18
3332.625,chair,346847,43,NA,NA,NA,18
7007.2800000198185,bird,37608,1,practiceDistractor1,practiceTarget1,practice,24
11321.96000003023,art,51501,3,5,9,known,24
4574.635000026319,mary,57556,5,2,4,known,24
3817.3449999885634,bird,69385,8,8,10,known,24
3891.345000010915,airplane,74887,10,10,12,known,24
23500.930000038352,rolling pin handle facing me,106064,13,K,I,unknown,24
9333.559999999125,vertical art,116259,15,D,G,unknown,24
8719.84999999404,spiky,125853,17,C,G,unknown,24
16261.804999958258,sideways helmet,143224,19,NA,NA,NA,24
15316.229999996722,stick and ball,159401,21,NA,NA,NA,24
10222.415000025649,stick and ball,171236,23,NA,NA,NA,24
5212.8800000064075,stick and ball,178559,25,NA,NA,NA,24
10665.900000021793,symbols,190838,27,NA,NA,NA,24
3009.139999980107,cat,195458,29,NA,NA,NA,24
3348.550000053365,chair,200418,31,NA,NA,NA,24
4311.219999974128,car,206339,33,NA,NA,NA,24
2418.6350000090897,tree,209621,35,NA,NA,NA,24
2509.4699999899603,fork,212997,37,NA,NA,NA,24
2575.4699999815784,fork,218179,39,NA,NA,NA,24
3279.915000020992,fork,222319,41,NA,NA,NA,24
3027.9849999933504,flower,227477,43,NA,NA,NA,24
7567.525000005844,bird,614893,1,practiceDistractor1,practiceTarget1,practice,10
10355.749999987893,art,631600,3,L,F,known,10
11793.790000010631,npc tom,645784,5,J,H,known,10
2863.6249999981374,bird,656672,8,C,G,known,10
4492.655000009108,airplane,662536,10,G,B,known,10
2593.930000002729,ring,667344,13,2,11,unknown,10
2399.0199999971082,chair,670619,15,8,4,unknown,10
1837.6699999935227,dice,673576,17,1,4,unknown,10
6971.765000009327,butterfly,681928,19,NA,NA,NA,10
1628.1350000062957,fork,684432,21,NA,NA,NA,10
2433.0800000025192,fork,687984,23,NA,NA,NA,10
2832.4350000038976,fork,692185,25,NA,NA,NA,10
1857.7400000067428,cat,697161,27,NA,NA,NA,10
5785.814999995637,tool,704816,29,NA,NA,NA,10
6689.904999991995,long,713376,31,NA,NA,NA,10
3629.9899999867193,star,717882,33,NA,NA,NA,10
2475.8849999925587,long,722979,35,NA,NA,NA,10
9028.729999990901,y shaped,733377,37,NA,NA,NA,10
2668.409999998403,y shaped,736913,39,NA,NA,NA,10
6191.444999989471,y shaped,744233,41,NA,NA,NA,10
2883.7599999969825,crown,749758,43,NA,NA,NA,10
9024.200000014389,bird,44859,1,practiceDistractor1,practiceTarget1,practice,39
9157.399999996414,art,60353,3,A,K,known,39
10206.599999975879,Bolund,72425,5,F,E,known,39
4665.300000022398,bird,85098,8,I,B,known,39
15873.300000006566,plane,102580,10,B,L,known,39
10340.700000000652,insect,117544,13,5,4,unknown,39
5462.100000004284,utensil,126110,15,7,8,unknown,39
9082.400000013877,chair,136548,17,1,8,unknown,39
7706.700000009732,shoe,145108,19,NA,NA,NA,39
4062.3000000196043,animal,150276,21,NA,NA,NA,39
4801.099999982398,mammal,156681,23,NA,NA,NA,39
5334.100000007311,feline,163120,25,NA,NA,NA,39
5232.500000012806,flower,171460,27,NA,NA,NA,39
10751.000000018394,bullseye,183817,29,NA,NA,NA,39
24467.299999989336,many protrusions,210137,31,NA,NA,NA,39
6094.000000011874,spikey,217087,33,NA,NA,NA,39
8708.400000003166,ufo,227153,35,NA,NA,NA,39
8922.69999999553,black and white,237181,37,NA,NA,NA,39
5625.399999989895,black and white,245913,39,NA,NA,NA,39
5263.8999999908265,black and white,253782,41,NA,NA,NA,39
12115.699999994831,NOT black and white,269007,43,NA,NA,NA,39
21242.925000377,bird,114457,1,practiceDistractor1,practiceTarget1,practice,34
10412.43499983102,art,128749,3,K,C,known,34
29490.334999747574,HansMichel,160405,5,L,A,known,34
9142.560000531375,bird,177553,8,J,D,known,34
8131.369999609888,plane,188789,10,D,B,known,34
8165.980000048876,shoe,200173,13,12,5,unknown,34
6023.474999703467,fork,208801,15,2,9,unknown,34
8274.000000208616,apple,219681,17,10,9,unknown,34
8955.269999802113,chair,230740,19,NA,NA,NA,34
6261.919999495149,pen,238856,21,NA,NA,NA,34
6251.7450004816055,pen,248212,23,NA,NA,NA,34
6238.840000703931,pen,257556,25,NA,NA,NA,34
6996.999999508262,cat,266408,27,NA,NA,NA,34
9499.270000495017,tall,277012,29,NA,NA,NA,34
15938.954999670386,crunchy,295556,31,NA,NA,NA,34
10296.439999714494,long,307956,33,NA,NA,NA,34
23221.084999851882,ex,333032,35,NA,NA,NA,34
10942.43000075221,tea,347079,37,NA,NA,NA,34
7823.289999738336,tea,356507,39,NA,NA,NA,34
7776.420000009239,tea,366139,41,NA,NA,NA,34
11082.070000469685,y,378575,43,NA,NA,NA,34
14973.06000001845,bird,70939,1,practiceDistractor1,practiceTarget1,practice,31
11676.639999990584,art,88446,3,J,A,known,31
6637.630000011995,Jason,97252,5,E,H,known,31
4711.769999994431,bird,109976,8,K,I,known,31
4692.320000001928,plane,116535,10,I,D,known,31
3738.4650000021793,apple,123455,13,11,3,unknown,31
3836.9850000017323,cat,129905,15,5,8,unknown,31
3770.2249999856576,dice,136287,17,6,8,unknown,31
3386.3649999839254,shoe,141034,19,NA,NA,NA,31
3442.190000001574,car,146585,21,NA,NA,NA,31
3870.2749999938533,car,153067,23,NA,NA,NA,31
3622.639999986859,car,158548,25,NA,NA,NA,31
3719.615000009071,pen,164131,27,NA,NA,NA,31
9513.194999977713,spiked y,174758,29,NA,NA,NA,31
8764.715000026627,pacifier,186631,31,NA,NA,NA,31
7413.230000005569,chef hat,196154,33,NA,NA,NA,31
22418.610000022454,squeeze,219432,35,NA,NA,NA,31
12661.530000012135,circular,232950,37,NA,NA,NA,31
8236.784999986412,circular,243809,39,NA,NA,NA,31
7267.259999993257,circular,251939,41,NA,NA,NA,31
13909.899999998743,art,267212,43,NA,NA,NA,31
4972,bird,37199,1,practiceDistractor1,practiceTarget1,practice,8
9445,art,59843,3,C,J,known,8
5172,Hi,68139,5,F,A,known,8
5789,bird,81965,8,B,E,known,8
5520,airplane,88870,10,E,I,known,8
2474,tree,94145,13,4,9,unknown,8
2134,flower,97156,15,8,3,unknown,8
1965,fruit,100000,17,6,3,unknown,8
3026,insect,104674,19,NA,NA,NA,8
3254,chair,109320,21,NA,NA,NA,8
3659,chair,115607,23,NA,NA,NA,8
1623,chair,118349,25,NA,NA,NA,8
1852,car,121827,27,NA,NA,NA,8
6643,hexagon shaped item,131601,29,NA,NA,NA,8
6760,weird art thing that is tall,140504,31,NA,NA,NA,8
9043,object that ISNT spikey,151175,33,NA,NA,NA,8
10374,blown glass art,163170,35,NA,NA,NA,8
9117,it looks like waves and is all white,173915,37,NA,NA,NA,8
6372,all white looks like waves,181659,39,NA,NA,NA,8
3875,all white looks like waves,187406,41,NA,NA,NA,8
9821,it looks like cymbols,198351,43,NA,NA,NA,8
4552.265000063926,bird,851243,1,practiceDistractor1,practiceTarget1,practice,26
7112.285000039265,vase,859841,3,H,B,known,26
12057.970000081696,Kev,872818,5,C,G,known,26
4853.204999933951,bird,885679,8,K,L,known,26
4854.730000020936,airplane,892640,10,L,I,known,26
2721.3449999690056,cat,902210,13,9,7,unknown,26
9168.270000023767,ring,912740,15,11,5,unknown,26
3180.1249999552965,fork,917780,17,1,5,unknown,26
2855.779999983497,pen,921741,19,NA,NA,NA,26
5012.685000081547,sunflower,927861,21,NA,NA,NA,26
3439.5650000078604,sunflower,933906,23,NA,NA,NA,26
3911.850000033155,sunflower,938676,25,NA,NA,NA,26
1921.8549999641255,car,943206,27,NA,NA,NA,26
6736.1399999354035,cactus,951051,29,NA,NA,NA,26
6151.769999996759,plunger,958310,31,NA,NA,NA,26
5861.995000042953,slipper,965526,33,NA,NA,NA,26
6117.075000074692,Gear,972501,35,NA,NA,NA,26
9588.59499997925,Boomerang,983196,37,NA,NA,NA,26
5958.125000004657,Airplane,991761,39,NA,NA,NA,26
6610.444999998435,airplane,999240,41,NA,NA,NA,26
6203.289999975823,chef hat,1006552,43,NA,NA,NA,26
48461.85500000138,bird,73853,1,practiceDistractor1,practiceTarget1,practice,21
29713.940000045113,art,105749,3,H,B,known,21
3773.4450000571087,art,110557,5,G,J,known,21
6835.34500002861,bird,125444,8,L,C,known,21
9465.390000026673,aeroplane,137044,10,C,E,known,21
1709.320000023581,cat,142241,13,1,10,unknown,21
1829.9849999602884,pen,144961,15,2,8,unknown,21
1777.170000015758,tree,148613,17,6,8,unknown,21
1512.9750000778586,car,150993,19,NA,NA,NA,21
2005.115000065416,shoe,153864,21,NA,NA,NA,21
1579.1949999984354,shoe,157312,23,NA,NA,NA,21
1734.080000082031,shoe,160183,25,NA,NA,NA,21
1482.9349999781698,chair,164319,27,NA,NA,NA,21
1942.4850000068545,art,168391,29,NA,NA,NA,21
4312.275000032969,none,174596,31,NA,NA,NA,21
3471.8949999660254,cleaner,179180,33,NA,NA,NA,21
10627.34000000637,art,191701,35,NA,NA,NA,21
21262.489999993704,Monochrome,214090,37,NA,NA,NA,21
1780.1149999722838,Monochrome,217241,39,NA,NA,NA,21
1811.3299999386072,Monochrome,219928,41,NA,NA,NA,21
9133.739999961108,antenna,230423,43,NA,NA,NA,21
7338.7399999191985,bird,28812,1,practiceDistractor1,practiceTarget1,practice,16
8487.350000068545,art,39162,3,L,C,known,16
5122.899999958463,Mike,45942,5,H,D,known,16
119943.34500003606,Bird,173894,8,E,I,known,16
4024.459999985993,airplane,179025,10,I,F,known,16
3110.8199999434873,shoe,184513,13,3,11,unknown,16
2620.065000024624,fork,188745,15,12,4,unknown,16
2064.894999959506,pen,192419,17,1,4,unknown,16
3080.2200000034645,butterfly,197609,19,NA,NA,NA,16
2275.3800000064075,car,201239,21,NA,NA,NA,16
2291.055000037886,car,206639,23,NA,NA,NA,16
1655.7949999114498,car,209400,25,NA,NA,NA,16
2751.604999997653,ring,213509,27,NA,NA,NA,16
17411.044999957085,not sure,233024,29,NA,NA,NA,16
8194.124999921769,shoe,243074,31,NA,NA,NA,16
4045.8749999525025,ball,248475,33,NA,NA,NA,16
7613.6549999937415,instrument,258195,35,NA,NA,NA,16
4438.205000013113,cactus,265739,37,NA,NA,NA,16
3842.479999992065,cactus,271695,39,NA,NA,NA,16
3919.3949999753386,cactus,278220,41,NA,NA,NA,16
5339.9699999718,mirrors,285165,43,NA,NA,NA,16
9756.285000010394,bird,62702,1,practiceDistractor1,practiceTarget1,practice,20
11911.844999995083,art,77957,3,A,I,known,20
10366.855000000214,Dale,91247,5,F,G,known,20
4010.920000000624,bird,103266,8,E,C,known,20
3371.9050000072457,plane,107748,10,C,B,known,20
2415.580000000773,car,113605,13,7,3,unknown,20
2431.2250000075437,tree,116897,15,1,10,unknown,20
1923.1599999766331,fork,119929,17,5,10,unknown,20
2067.6600000006147,dice,123110,19,NA,NA,NA,20
2199.419999989914,shoe,128420,21,NA,NA,NA,20
1735.54999998305,shoe,131763,23,NA,NA,NA,20
1770.8649999985937,shoe,135640,25,NA,NA,NA,20
1515.354999981355,cat,138269,27,NA,NA,NA,20
5644.094999996014,rubber,145274,29,NA,NA,NA,20
7527.094999997644,thin,155910,31,NA,NA,NA,20
3605.844999983674,feather,161123,33,NA,NA,NA,20
3496.7600000090897,cymbal,166479,35,NA,NA,NA,20
4870.479999983218,plunger,173214,37,NA,NA,NA,20
2354.699999996228,plunger,176430,39,NA,NA,NA,20
2438.5350000229664,plunger,180978,41,NA,NA,NA,20
2514.295000000857,spiky,184351,43,NA,NA,NA,20
6742.659999988973,bird,42861,1,practiceDistractor1,practiceTarget1,practice,37
8675.909999990836,art,55136,3,10,6,known,37
4716.32500004489,bob,63983,5,1,2,known,37
4088.5199999902397,bird,76331,8,7,5,known,37
3680.389999994077,airplane,83126,10,5,12,known,37
6756.740000098944,has holes,95297,13,H,J,unknown,37
9948.284999933094,spikes all over,107851,15,G,C,unknown,37
8995.794999995269,ball shaped,117952,17,D,C,unknown,37
4836.654999991879,ribbon,124394,19,NA,NA,NA,37
5475.23999994155,dog bone,132478,21,NA,NA,NA,37
3401.1550000868738,dog bone,137985,23,NA,NA,NA,37
5126.929999911226,dog bone,146217,25,NA,NA,NA,37
3387.999999918975,cymbals,150711,27,NA,NA,NA,37
2605.94499995932,car,154924,29,NA,NA,NA,37
2099.919999949634,cat,158637,31,NA,NA,NA,37
1667.0100000919774,tree,161661,33,NA,NA,NA,37
1871.4850000105798,chair,164388,35,NA,NA,NA,37
1562.5500000314787,shoe,167806,37,NA,NA,NA,37
1643.0800000671297,shoe,172564,39,NA,NA,NA,37
2815.94000000041,the shoe,177989,41,NA,NA,NA,37
2686.764999991283,flower,182301,43,NA,NA,NA,37
230465.84000001894,bird,259019,1,practiceDistractor1,practiceTarget1,practice,7
7884.925000020303,art,276863,3,5,10,known,7
16672.83000005409,Partner,295207,5,11,3,known,7
11619.120000046678,bird,314841,8,9,6,known,7
5586.684999987483,plane,323538,10,6,7,known,7
11578.67499999702,suction tool,340677,13,J,C,unknown,7
11477.069999964442,dog toy,354014,15,E,K,unknown,7
10315.230000007432,white object,366935,17,A,K,unknown,7
12473.73000002699,ufo shaped object,381021,19,NA,NA,NA,7
22284.950000001118,plastic object with vent,405164,21,NA,NA,NA,7
6932.380000012927,plastic object with vent,413958,23,NA,NA,NA,7
5486.350000021048,plastic object with vent,421559,25,NA,NA,NA,7
12469.975000014529,folded object,435642,27,NA,NA,NA,7
3579.150000005029,cat,441833,29,NA,NA,NA,7
2702.5099999736995,flower,446646,31,NA,NA,NA,7
2455.7600000407547,shoe,451712,33,NA,NA,NA,7
2591.054999968037,ring,457413,35,NA,NA,NA,7
2907.565000001341,butterfly,463430,37,NA,NA,NA,7
3032.2049999958836,butterfly,467823,39,NA,NA,NA,7
4219.184999994468,butterfly,473153,41,NA,NA,NA,7
2195.7949999487028,fork,477959,43,NA,NA,NA,7
10818.864999979269,bird,36155,1,practiceDistractor1,practiceTarget1,practice,9
7398.385000007693,art,47212,3,8,7,known,9
7183.829999994487,jen,57143,5,5,12,known,9
5005.895000009332,bird,70158,8,3,4,known,9
4048.1649999856018,fly,75647,10,4,10,known,9
6899.490000010701,long,86489,13,H,J,unknown,9
5736.464999994496,white,93598,15,G,A,unknown,9
3198.740000021644,silver,99903,17,L,A,unknown,9
5574.834999977611,black,108584,19,NA,NA,NA,9
11542.96500000055,spikes,121758,21,NA,NA,NA,9
3197.0000000146683,spikes,127081,23,NA,NA,NA,9
2467.514999996638,spikes,132690,25,NA,NA,NA,9
4290.945000015199,not spikes,138627,27,NA,NA,NA,9
2508.319999993546,ring,142244,29,NA,NA,NA,9
2351.2700000137556,cat,146483,31,NA,NA,NA,9
1930.6700000015553,tree,150286,33,NA,NA,NA,9
2348.200000007637,chair,154393,35,NA,NA,NA,9
2648.5000000102445,apple,157906,37,NA,NA,NA,9
1686.6600000066683,apple,160702,39,NA,NA,NA,9
1385.6099999975413,apple,163204,41,NA,NA,NA,9
2357.5650000129826,shoe,166455,43,NA,NA,NA,9
18081.429999991087,bird,219617,1,practiceDistractor1,practiceTarget1,practice,25
7432.784999982687,art,230713,3,7,11,known,25
5536.720000003697,AO,237492,5,9,8,known,25
5866.89999999362,bird,251368,8,12,1,known,25
8132.069999992382,flight,261361,10,1,3,known,25
14023.584999988088,dark,278630,13,C,L,unknown,25
10131.244999996852,small,290376,15,H,E,unknown,25
7308.055000001332,crumpled,300292,17,G,E,unknown,25
6038.060000020778,shiny,307690,19,NA,NA,NA,25
3694.1200000001118,art,312744,21,NA,NA,NA,25
6155.144999996992,art,319765,23,NA,NA,NA,25
4158.100000000559,art,325033,25,NA,NA,NA,25
6068.319999991218,white,332713,27,NA,NA,NA,25
4719.4650000019465,pen,338794,29,NA,NA,NA,25
3555.4749999719206,car,343460,31,NA,NA,NA,25
3521.070000017062,flower,350093,33,NA,NA,NA,25
3102.5599999993574,ring,354306,35,NA,NA,NA,25
17670.32500001369,chair,375086,37,NA,NA,NA,25
3795.3400000114925,chair,380993,39,NA,NA,NA,25
4245.009999984177,chair,386348,41,NA,NA,NA,25
4304.015000001527,fruit,393261,43,NA,NA,NA,25
12385.645000264049,bird,35988,1,practiceDistractor1,practiceTarget1,practice,27
16329.18499968946,art,54575,3,9,10,known,27
7435.7299990952015,sneakylawyer,64216,5,4,2,known,27
14496.105000376701,something that flys,86719,8,3,8,known,27
17243.894999846816,Something that is man made and flys,107071,10,8,6,known,27
9362.040000036359,something that blows air,120813,13,H,G,unknown,27
9703.579999506474,something that stands upright,131624,15,B,E,unknown,27
5624.804999679327,something smooth,138104,17,C,E,unknown,27
22565.954999998212,something that looks like a womans feminine product,163275,19,NA,NA,NA,27
15150.380000472069,something that looks like a metal flower,179282,21,NA,NA,NA,27
16665.97499884665,something that looks like a metal flower,197555,23,NA,NA,NA,27
15460.38000099361,something that looks like a metal flower,214622,25,NA,NA,NA,27
38041.96999967098,something that looks like it has two circles,254523,27,NA,NA,NA,27
9717.104999348521,something that you smell not eat,266846,29,NA,NA,NA,27
10055.850001052022,something that grows in the ground,278258,31,NA,NA,NA,27
5169.490000233054,something you eat with,284534,33,NA,NA,NA,27
7433.550000190735,something you wear on your finger,294073,35,NA,NA,NA,27
6180.844999849796,something you sit in,302861,37,NA,NA,NA,27
3781.5749999135733,something you sit in,309249,39,NA,NA,NA,27
4194.899998605251,something you sit in,315300,41,NA,NA,NA,27
4216.435000300407,something you write with,321123,43,NA,NA,NA,27
9297.105000001466,bird,95510,1,practiceDistractor1,practiceTarget1,practice,35
9314.589999999953,art,109840,3,3,8,known,35
14213.920000000144,hi,126096,5,5,9,known,35
5695.42999999976,pigeon,139802,8,6,12,known,35
7035.9150000003865,airplane,148203,10,12,1,known,35
39391.05000000016,cut up shapes that make a round object,191624,13,G,H,unknown,35
25542.830000000336,black looks like a 3d  on top of x,218801,15,I,B,unknown,35
24999.205000000075,lint roller with a bolt through it,246415,17,J,B,unknown,35
11847.775000000169,dog toy in the shape of a Y,259135,19,NA,NA,NA,35
30666.999999999476,like a flying saucer with a huge satelite dish on top,291930,21,NA,NA,NA,35
37555.9099999991,the same flying saucer from before also kind of looks like a spinning top,332604,23,NA,NA,NA,35
19814.08500000002,still the same flying saucer spinning top,355537,25,NA,NA,NA,35
23278.27999999863,and abstract sculpture sort of looks like the Jesus fish facing down,380942,27,NA,NA,NA,35
5988.2300000008545,butterfly,390058,29,NA,NA,NA,35
3612.7049999995506,apple,394788,31,NA,NA,NA,35
12024.784999999567,dice 6 on top,409435,33,NA,NA,NA,35
12307.499999998952,ring with big stone,424878,35,NA,NA,NA,35
3923.4699999997392,cat,431427,37,NA,NA,NA,35
3005.6549999990384,cat,435817,39,NA,NA,NA,35
3151.765000000538,cat,441072,41,NA,NA,NA,35
3234.8349999992643,shoe,447422,43,NA,NA,NA,35
8446.234999995795,bird,92359,1,practiceDistractor1,practiceTarget1,practice,1
17806.320000003325,art,116272,3,11,6,known,1
8161.110000000917,jay,129191,5,3,1,known,1
7023.369999995339,bird,144237,8,8,7,known,1
7699.509999991278,in the sky,153303,10,7,4,known,1
12216.804999989108,vented and has handles,168866,13,J,E,unknown,1
10487.510000006296,stick attatched,180969,15,D,I,unknown,1
8737.095000004047,shiny and hard,191816,17,H,I,unknown,1
13410.965000002761,has a plunger look,206338,19,NA,NA,NA,1
7132.174999991548,multicolored,214334,21,NA,NA,NA,1
15001.875000001746,long with a fold in the middle,230449,23,NA,NA,NA,1
10176.825000002282,rounded edges,241740,25,NA,NA,NA,1
5326.824999996461,prickly,247927,27,NA,NA,NA,1
5332.154999996419,used to eat,255124,29,NA,NA,NA,1
4397.705000010319,you wear,261633,31,NA,NA,NA,1
3737.7899999992223,you sit in,266483,33,NA,NA,NA,1
3621.710000006715,you eat,272720,35,NA,NA,NA,1
5422.469999990426,you drive,279006,37,NA,NA,NA,1
5199.3750000110595,you drive,286317,39,NA,NA,NA,1
8168.615000002319,put on seatbelt,295869,41,NA,NA,NA,1
8422.950000007404,purs,306401,43,NA,NA,NA,1
15835.974999994505,bird,541175,1,practiceDistractor1,practiceTarget1,practice,29
8604.090000008,art,553767,3,3,5,known,29
6949.090000009164,jon,563558,5,1,11,known,29
4402.26000000257,bird,575974,8,9,12,known,29
5596.619999996619,fly,583183,10,12,4,known,29
8976.989999995567,art,596158,13,A,G,unknown,29
13539.35000000638,radio,612312,15,C,B,unknown,29
5252.249999990454,ball,619423,17,J,B,unknown,29
6894.939999998314,flower,627177,19,NA,NA,NA,29
5646.630000002915,spin,633935,21,NA,NA,NA,29
5231.735000008484,spin,640529,23,NA,NA,NA,29
4609.185000008438,spin,646497,25,NA,NA,NA,29
5845.724999991944,cactus,653704,27,NA,NA,NA,29
7681.0049999912735,flower,663498,29,NA,NA,NA,29
3461.1950000107754,ring,667818,31,NA,NA,NA,29
5102.075000002515,fork,673777,33,NA,NA,NA,29
4102.634999988368,dice,678994,35,NA,NA,NA,29
3989.365000015823,cat,684842,37,NA,NA,NA,29
2983.314999990398,cat,688681,39,NA,NA,NA,29
2437.7999999851454,cat,694229,41,NA,NA,NA,29
2709.199999982957,pen,698297,43,NA,NA,NA,29
9600.619999997434,bird,46302,1,practiceDistractor1,practiceTarget1,practice,22
13543.109999998705,art,62188,3,4,5,known,22
8327.900000000227,Dud,75158,5,11,1,known,22
5435.8700000011595,bird,88600,8,7,2,known,22
3822.4000000009255,plane,93778,10,2,12,known,22
5224.064999998518,not spiky,102270,13,L,E,unknown,22
17737.58000000089,rolling pin,121864,15,J,B,unknown,22
6198.669999997946,hole,129418,17,A,B,unknown,22
7814.839999999094,no handle,140337,19,NA,NA,NA,22
5207.745000003342,no handle,148652,21,NA,NA,NA,22
10978.189999997994,clear plastic,160735,23,NA,NA,NA,22
3841.4000000011583,clear plastic,166432,25,NA,NA,NA,22
11434.360000002926,saucer,179472,27,NA,NA,NA,22
3802.8099999974074,ring,184880,29,NA,NA,NA,22
2843.4050000032585,shoe,190329,31,NA,NA,NA,22
2801.4149999980873,chair,195735,33,NA,NA,NA,22
6122.289999999339,butterfly,203464,35,NA,NA,NA,22
3054.7399999995832,cat,208124,37,NA,NA,NA,22
2298.5850000004575,cat,211777,39,NA,NA,NA,22
2048.030000001745,cat,215180,41,NA,NA,NA,22
2612.8549999993993,car,220398,43,NA,NA,NA,22
6161.099999999351,bird,58495,1,practiceDistractor1,practiceTarget1,practice,11
9290.210000001025,art,70083,3,K,D,known,11
11257.100000000719,kl,83262,5,A,L,known,11
4750.884999999471,bird,96019,8,H,G,known,11
4749.535000000833,plane,101624,10,G,I,known,11
3390.8250000004045,pen,107994,13,11,5,unknown,11
2741.8849999994563,shoe,111840,15,8,2,unknown,11
3080.00500000162,flower,116525,17,6,2,unknown,11
1897.240000000238,tree,121527,19,NA,NA,NA,11
2947.599999999511,fork,126078,21,NA,NA,NA,11
2854.9100000000326,fork,130288,23,NA,NA,NA,11
2842.96999999971,fork,134486,25,NA,NA,NA,11
1776.8849999993108,car,138367,27,NA,NA,NA,11
6617.315000001341,ice thing,146839,29,NA,NA,NA,11
24899.745000000636,longer plastic toy,174843,31,NA,NA,NA,11
13349.2700000006,dumbbell,190798,33,NA,NA,NA,11
16657.825000000244,folded cross,208311,35,NA,NA,NA,11
6238.105000000389,vase,216154,37,NA,NA,NA,11
2093.9300000008952,vase,220102,39,NA,NA,NA,11
1852.1799999998475,vase,224058,41,NA,NA,NA,11
3229.274999999703,trophy,228643,43,NA,NA,NA,11
13249.48000000586,bird,43620,1,practiceDistractor1,practiceTarget1,practice,17
5852.8149999983725,art,59078,3,E,K,known,17
9821.78500000009,Marshall,79323,5,H,L,known,17
9018.210000002,bird,96355,8,D,A,known,17
48606.55499999848,aeroplane,145820,10,A,G,known,17
6327.785000001313,butterfly,157491,13,12,10,unknown,17
5280.754999999772,tree,165379,15,4,6,unknown,17
44672.41500000091,sunflower,211662,17,8,6,unknown,17
10398.629999996047,cat,223171,19,NA,NA,NA,17
9856.729999999516,fruit,235115,21,NA,NA,NA,17
18118.069999996806,fruit,254092,23,NA,NA,NA,17
5065.904999995837,apple,260268,25,NA,NA,NA,17
4643.875000001572,fork,266774,27,NA,NA,NA,17
7791.839999998047,slipper,277677,29,NA,NA,NA,17
4314.720000002126,wood,282851,31,NA,NA,NA,17
8997.105000002193,thread,294957,33,NA,NA,NA,17
7979.534999998577,wood,305050,35,NA,NA,NA,17
6115.784999994503,plastic,312788,37,NA,NA,NA,17
10208.344999999099,headphones,324355,39,NA,NA,NA,17
7471.770000003744,headphones,332692,41,NA,NA,NA,17
8943.440000002738,bottle,343206,43,NA,NA,NA,17
15028.190000000905,bird,77317,1,practiceDistractor1,practiceTarget1,practice,28
12728.989999999612,art,93033,3,11,10,known,28
7527.900000000955,JO,104068,5,2,9,known,28
7181.810000000041,bird,119254,8,4,12,known,28
6660.8350000005885,airplane,127018,10,12,8,known,28
24801.985000000073,round with handle,155072,13,B,C,unknown,28
12283.644999999495,3 pronged,169459,15,A,I,unknown,28
24400.46000000072,3  pronged,195715,17,F,I,unknown,28
8585.85999999923,crown,206158,19,NA,NA,NA,28
10405.349999999074,cymbals,218167,21,NA,NA,NA,28
14791.180000000168,cymbals,234813,23,NA,NA,NA,28
5776.825000000827,cymbals,241944,25,NA,NA,NA,28
8039.354999998963,not cymbals,253089,27,NA,NA,NA,28
4406.399999999849,fork,259600,29,NA,NA,NA,28
5934.175000000338,butterfly,266639,31,NA,NA,NA,28
4315.75500000146,shoe,272311,33,NA,NA,NA,28
4404.750000001513,pen,278072,35,NA,NA,NA,28
3904.849999998987,car,283082,37,NA,NA,NA,28
8704.07999999955,car,294390,39,NA,NA,NA,28
3607.6150000008056,car,300104,41,NA,NA,NA,28
4789.205000000948,chair,307998,43,NA,NA,NA,28
8440.875000000233,bird,77440,1,practiceDistractor1,practiceTarget1,practice,6
22587.60499999972,art,102865,3,11,8,known,6
15176.000000000378,Zoey,121081,5,9,12,known,6
7541.945000000851,Bird,136633,8,1,10,known,6
5098.680000000051,plane,143838,10,10,7,known,6
16392.095000000147,black and white,164463,13,G,D,unknown,6
6964.400000000751,longer one,172786,15,J,F,unknown,6
17886.51500000016,like a cymbal,193282,17,I,F,unknown,6
14144.96999999939,not the Y shaped one,210036,19,NA,NA,NA,6
17603.699999999662,one with a stick,229500,21,NA,NA,NA,6
20953.45499999984,not the trophy,252564,23,NA,NA,NA,6
9109.66499999995,the darker one,262534,25,NA,NA,NA,6
14067.785000000207,the lighter one,279208,27,NA,NA,NA,6
5402.839999999735,apple,285718,29,NA,NA,NA,6
4149.954999999842,chair,292978,31,NA,NA,NA,6
3621.4900000004563,pen,298460,33,NA,NA,NA,6
2948.9250000005704,cat,302270,35,NA,NA,NA,6
4768.235000000452,ring,308648,37,NA,NA,NA,6
9265.204999999667,goes on finger,319272,39,NA,NA,NA,6
5702.80500000075,not the car,326836,41,NA,NA,NA,6
7302.094999999972,die,336002,43,NA,NA,NA,6
8821.289999992587,the pigeon,48488,1,practiceDistractor1,practiceTarget1,practice,19
10709.294999978738,art,62935,3,7,4,known,19
7814.784999995027,CJ,73663,5,12,8,known,19
5073.909999977332,bird,86744,8,5,6,known,19
7300.380000000587,airplane,97152,10,6,1,known,19
11034.91000001668,Y shaped spongy stuff,113841,13,J,E,unknown,19
21578.324999980396,rolling pin with round appendices,136777,15,H,L,unknown,19
8264.569999999367,flower,145898,17,A,L,unknown,19
5276.069999992615,pump,152530,19,NA,NA,NA,19
11440.704999986337,plastic holed device,165075,21,NA,NA,NA,19
7944.719999999506,plastic holed device,175123,23,NA,NA,NA,19
7217.590000014752,plastic holed device,184947,25,NA,NA,NA,19
5559.154999995371,art,191363,27,NA,NA,NA,19
3886.479999986477,shoe,197356,29,NA,NA,NA,19
3412.240000005113,car,202124,31,NA,NA,NA,19
3084.919999993872,chair,206564,33,NA,NA,NA,19
3629.719999997178,cat,213300,35,NA,NA,NA,19
3469.505000015488,flower,218125,37,NA,NA,NA,19
3697.4999999802094,flower,223428,39,NA,NA,NA,19
3161.6400000057183,flower,228453,41,NA,NA,NA,19
3818.7550000147894,pen,233629,43,NA,NA,NA,19
41351.03999997955,bird,73432,1,practiceDistractor1,practiceTarget1,practice,12
19412.74500003783,smooth sculpture,96529,3,11,2,known,12
3449.0550000336953,Melanie,107680,5,8,5,known,12
3689.620000019204,bird,119387,8,9,1,known,12
2262.0899999747053,plane,123265,10,1,3,known,12
7526.56000002753,rounder bulby one,134793,13,H,E,unknown,12
8796.039999986533,NOT the pump,146698,15,L,B,unknown,12
5153.46000000136,pointer object,153710,17,G,B,unknown,12
4417.170000029728,the spikey one,159054,19,NA,NA,NA,12
16651.36999997776,the one with the triangle on top,178348,21,NA,NA,NA,12
11826.754999987315,the one with the triangle on top,192033,23,NA,NA,NA,12
5669.659999955911,the one with the triangle on top,199312,25,NA,NA,NA,12
5963.120000029448,NOT the one you just clicked,206880,27,NA,NA,NA,12
3845.180000003893,butterfly,213833,29,NA,NA,NA,12
4024.3200000259094,pen,219472,31,NA,NA,NA,12
6152.074999990873,chair,227232,33,NA,NA,NA,12
4296.710000024177,tree,233385,35,NA,NA,NA,12
2506.475000001956,cat,237249,37,NA,NA,NA,12
2499.759999976959,cat,241361,39,NA,NA,NA,12
5850.294999952894,cat,249324,41,NA,NA,NA,12
5358.970000001136,ring,256540,43,NA,NA,NA,12
4499.710000003688,bird,64701,1,practiceDistractor1,practiceTarget1,practice,5
5817.825000005541,smooth statue,73141,3,10,3,known,5
3331.7499999975553,ken,78472,5,5,9,known,5
3130.3599999955622,bird,89615,8,11,7,known,5
1992.9750000010245,plane,93216,10,7,6,known,5
2946.5049999998882,waves,99480,13,I,H,unknown,5
2633.2949999923585,round,105221,15,E,J,unknown,5
3902.795000001788,bop it,110483,17,L,J,unknown,5
4147.020000003977,intricate,117741,19,NA,NA,NA,5
5284.319999991567,maxi pad,123884,21,NA,NA,NA,5
3107.6600000087637,wings,128848,23,NA,NA,NA,5
5297.189999997499,wings,135753,25,NA,NA,NA,5
5888.389999992796,circles,142995,27,NA,NA,NA,5
1460.57500000461,ring,145315,29,NA,NA,NA,5
1492.9550000088057,cat,147666,31,NA,NA,NA,5
2408.035000000382,die,153186,33,NA,NA,NA,5
1507.995000007213,fork,156053,35,NA,NA,NA,5
1826.4999999955762,tree,160491,37,NA,NA,NA,5
1592.290000000503,tree,165188,39,NA,NA,NA,5
1937.2799999982817,tree,168733,41,NA,NA,NA,5
1914.6100000070874,pen,171502,43,NA,NA,NA,5
14778.169999830425,bird,58319,1,practiceDistractor1,practiceTarget1,practice,30
16822.180000133812,art,78293,3,4,3,known,30
11137.399999890476,Dan,92870,5,2,8,known,30
10796.869999729097,bird,111689,8,7,12,known,30
6851.000000257045,plane,119655,10,12,9,known,30
11885.96999971196,stacked,134997,13,I,G,unknown,30
3823.5949999652803,art,139686,15,C,H,unknown,30
17125.184999778867,crumpled,158420,17,D,H,unknown,30
11282.585000153631,barbell,170566,19,NA,NA,NA,30
8049.9999998137355,flapper,179975,21,NA,NA,NA,30
7920.98500020802,flapper,188759,23,NA,NA,NA,30
9053.94500028342,flapper,199927,25,NA,NA,NA,30
25928.874999750406,arms,226719,27,NA,NA,NA,30
4761.219999752939,apple,232340,29,NA,NA,NA,30
12135.435000061989,cat,247589,31,NA,NA,NA,30
4104.564999695867,fork,252807,33,NA,NA,NA,30
3062.6199999824166,tree,257479,35,NA,NA,NA,30
4231.3199997879565,dice,262567,37,NA,NA,NA,30
4057.7700003050268,dice,268487,39,NA,NA,NA,30
3815.2799997478724,dice,274418,41,NA,NA,NA,30
6437.39499989897,chair,283465,43,NA,NA,NA,30
18492.129999911413,bird,39339,1,practiceDistractor1,practiceTarget1,practice,33
8505.464999936521,art,49821,3,4,11,known,33
15696.10499998089,yes,68120,5,12,1,known,33
8786.33000003174,brid,84921,8,3,6,known,33
30736.745000001974,Flight,117528,10,6,9,known,33
23906.610000063665,nothing,144329,13,D,F,unknown,33
12261.895000003278,yse,159219,15,B,C,unknown,33
6713.430000003427,art,167828,17,H,C,unknown,33
11935.320000047795,nothing,182470,19,NA,NA,NA,33
16916.59499995876,gun barrel,200282,21,NA,NA,NA,33
6059.940000064671,gun barrel,207732,23,NA,NA,NA,33
3837.1749999932945,gun barrel,213526,25,NA,NA,NA,33
14502.164999954402,dumbbell,228903,27,NA,NA,NA,33
16964.19000008609,black hairstreak,248505,29,NA,NA,NA,33
13188.889999990351,fork,263600,31,NA,NA,NA,33
15874.319999944419,ring,281334,33,NA,NA,NA,33
7091.119999997318,apple,289536,35,NA,NA,NA,33
18205.304999952205,leather,310882,37,NA,NA,NA,33
4309.705000021495,leather,317059,39,NA,NA,NA,33
2988.6749999132007,leather,322156,41,NA,NA,NA,33
16875.160000054166,white pine,340638,43,NA,NA,NA,33
8170,bird,24539,1,practiceDistractor1,practiceTarget1,practice,2
8365,art,34673,3,6,10,known,2
6471,k,41728,5,5,1,known,2
3848,bord,53586,8,9,7,known,2
6653,plane,62097,10,7,8,known,2
4099,air pump,69248,13,J,L,unknown,2
5217,spiky thing,77579,15,D,C,unknown,2
9395,art on a plac,88832,17,B,C,unknown,2
4311,spiky thing,95002,19,NA,NA,NA,2
5392,wooden thing,102248,21,NA,NA,NA,2
2866,wood thing,105969,23,NA,NA,NA,2
3462,wood thing,110537,25,NA,NA,NA,2
4900,junk,118042,27,NA,NA,NA,2
2713,apple,122112,29,NA,NA,NA,2
2048,ring,125018,31,NA,NA,NA,2
2128,flower,129258,33,NA,NA,NA,2
3077,dice,134196,35,NA,NA,NA,2
1788,shoe,137842,37,NA,NA,NA,2
1949,shoe,140898,39,NA,NA,NA,2
1513,shoe,143520,41,NA,NA,NA,2
2060,chair,148688,43,NA,NA,NA,2
14544.999999925494,bird,106270,1,practiceDistractor1,practiceTarget1,practice,14
8561.999999918044,art,119344,3,11,5,known,14
9925.999999977648,Kate,131225,5,1,6,known,14
5112.999999895692,bird,144352,8,8,3,known,14
5425.999999977648,aeroplane,151396,10,3,4,known,14
4184.999999590218,art,159441,13,I,G,unknown,14
6848.999999463558,toy,168165,15,L,B,unknown,14
9481.000000610948,holder,180755,17,J,B,unknown,14
5463.999999687076,toy,187341,19,NA,NA,NA,14
4887.999999336898,cap,193337,21,NA,NA,NA,14
2782.000000588596,cap,198231,23,NA,NA,NA,14
2627.0000003278255,cap,202342,25,NA,NA,NA,14
4394.000000320375,toy,207600,27,NA,NA,NA,14
4331.000000238419,dice,212795,29,NA,NA,NA,14
2737.999999895692,pen,216902,31,NA,NA,NA,14
3129.9999998882413,fork,221896,33,NA,NA,NA,14
3092.000000178814,shoe,226602,35,NA,NA,NA,14
2269.999999552965,cat,231986,37,NA,NA,NA,14
7226.9999999552965,animal,240572,39,NA,NA,NA,14
3720.9999999031425,animal,247417,41,NA,NA,NA,14
3109.0000001713634,chair,252654,43,NA,NA,NA,14
7453.8399999946705,bird,265191,1,practiceDistractor1,practiceTarget1,practice,15
4736.900000003516,vase,272276,3,B,L,known,15
5811.41000000207,jack,278684,5,C,A,known,15
5910.435000005236,bird,292603,8,E,I,known,15
2848.6199999970268,plane,298057,10,I,G,known,15
2077.864999999292,flower,304229,13,3,5,unknown,15
6179.744999994,butterfly,312515,15,1,9,unknown,15
1671.2049999987357,aooke,316041,17,8,9,unknown,15
2191.1400000026333,tree,321337,19,NA,NA,NA,15
1441.4600000018254,car,324639,21,NA,NA,NA,15
1065.3549999988172,car,326561,23,NA,NA,NA,15
903.5900000017136,car,329323,25,NA,NA,NA,15
3587.614999996731,fork,334769,27,NA,NA,NA,15
5627.82999999763,container,341503,29,NA,NA,NA,15
4479.7099999996135,holes,349089,31,NA,NA,NA,15
9415.825000003679,weights,359861,33,NA,NA,NA,15
3232.625000004191,pump,365701,35,NA,NA,NA,15
7941.270000002987,two piece,375503,37,NA,NA,NA,15
2492.565000000468,two piece,379101,39,NA,NA,NA,15
3037.804999999935,two piece,383993,41,NA,NA,NA,15
7245.455000003858,one piece,392843,43,NA,NA,NA,15
20414.999999999054,pegion,86654,1,practiceDistractor1,practiceTarget1,practice,3
26193.00000000112,smooth sculpture,117086,3,F,D,known,3
10470.999999999549,eric,130079,5,J,L,known,3
6668.9999999998545,bird,144767,8,I,E,known,3
11746.00000000099,aeroplane,157383,10,E,G,known,3
4005.0000000009895,pen,164952,13,11,7,unknown,3
9506.999999999593,butterfly,177080,15,2,3,unknown,3
61825.00000000073,flower,241512,17,9,3,unknown,3
4810.999999999709,apple,248450,19,NA,NA,NA,3
101772.99999999924,chair,352869,21,NA,NA,NA,3
3837.000000001339,chair,358085,23,NA,NA,NA,3
5991,chair,365206,25,NA,NA,NA,3
5612.000000000931,fork,372710,27,NA,NA,NA,3
5153.000000000291,pin,379231,29,NA,NA,NA,3
7733.000000000175,cap,387822,31,NA,NA,NA,3
20869.000000000582,art,411791,33,NA,NA,NA,3
10244.999999998952,sclupture,423408,35,NA,NA,NA,3
2854.9999999995343,art,427400,37,NA,NA,NA,3
2152.000000000058,art,430441,39,NA,NA,NA,3
3447.0000000001164,art,436361,41,NA,NA,NA,3
28579.99999999994,art,467049,43,NA,NA,NA,3
13342.329999999492,bird,232758,1,practiceDistractor1,practiceTarget1,practice,32
25556.14499999868,smooth sculpture,262371,3,F,G,known,32
7826.939999999013,G,278279,5,B,K,known,32
6661.649999998161,bird,292949,8,E,D,known,32
6196.495000000112,plane,301012,10,D,A,known,32
4742.949999999837,fork,309533,13,1,11,unknown,32
3680.480000002659,dice,316326,15,6,5,unknown,32
4449.485000000976,butterfly,323387,17,4,5,unknown,32
3203.3750000009313,tree,329700,19,NA,NA,NA,32
3348.7000000022817,pen,334413,21,NA,NA,NA,32
3002.3849999997765,pen,340525,23,NA,NA,NA,32
2740.69999999844,pen,344875,25,NA,NA,NA,32
2839.6800000009825,apple,349328,27,NA,NA,NA,32
21287.374999999884,pointy odd shaped structure,372475,29,NA,NA,NA,32
22958.449999998265,long flat object with loop,397298,31,NA,NA,NA,32
7668.525000000955,many sides,406353,33,NA,NA,NA,32
10536.220000001776,squeeze handle,419505,35,NA,NA,NA,32
16939.080000000075,two ended three prong object,438559,37,NA,NA,NA,32
10798.490000001038,two ended three prong object,450726,39,NA,NA,NA,32
19384.500000000116,two ended three prong object,473225,41,NA,NA,NA,32
5493.5349999977625,glass vase,479828,43,NA,NA,NA,32
12906,it has feathers,81346,1,practiceDistractor1,practiceTarget1,practice,4
12003,odd shape vase,96250,3,H,G,known,4
6840,jay,105198,5,J,K,known,4
23450,it has eyes,136652,8,I,L,known,4
7105,flies,145111,10,L,A,known,4
4645,you eat with it,154864,13,9,3,unknown,4
6730,you write with it,164697,15,8,10,unknown,4
4405,it flies,171207,17,2,10,unknown,4
5833,you put it on foot,177895,19,NA,NA,NA,4
6309,it comes from the ground,185557,21,NA,NA,NA,4
6025,it smells good,192686,23,NA,NA,NA,4
5810,it is round,199599,25,NA,NA,NA,4
4947,you eat it,205900,27,NA,NA,NA,4
5477,its smaller,212481,29,NA,NA,NA,4
7883,x shaped,221218,31,NA,NA,NA,4
15197,looks like bread,238269,33,NA,NA,NA,4
7330,odd shaped item,246453,35,NA,NA,NA,4
12331,looks like a tool for the toilet,261887,37,NA,NA,NA,4
5761,it is round,269504,39,NA,NA,NA,4
5058,it has a stick,277164,41,NA,NA,NA,4
6606,very oddly shaped,285124,43,NA,NA,NA,4
9874.314999906346,bird,97546,1,practiceDistractor1,practiceTarget1,practice,23
11361.61999986507,art,113818,3,B,F,known,23
10510.054999962449,johnny,127593,5,G,I,known,23
4892.205000156537,bird,140490,8,E,A,known,23
9077.035000082105,plane,152674,10,A,L,known,23
6939.759999979287,ring,173091,13,5,6,unknown,23
5086.020000046119,tree,180034,15,3,1,unknown,23
5993.20499994792,Car,188634,17,11,1,unknown,23
4548.464999999851,pen,196290,19,NA,NA,NA,23
4859.355000080541,apple,203754,21,NA,NA,NA,23
5921.039999928325,apple,210530,23,NA,NA,NA,23
6239.999999990687,apple,217874,25,NA,NA,NA,23
5138.615000061691,flower,224873,27,NA,NA,NA,23
12948.365000076592,broken,239426,29,NA,NA,NA,23
14489.665000000969,hug,256522,31,NA,NA,NA,23
29291.974999941885,hinge,286922,33,NA,NA,NA,23
11689.329999964684,instrument,300218,35,NA,NA,NA,23
5228.390000062063,art,306554,37,NA,NA,NA,23
5752.025000052527,art,313162,39,NA,NA,NA,23
8687.16000020504,art,322954,41,NA,NA,NA,23
13566.39499985613,syringe,338627,43,NA,NA,NA,23
11659.604999993462,bird,55166,1,practiceDistractor1,practiceTarget1,practice,40
14468.619999999646,art,72536,3,I,L,known,40
8837.294999975711,Kent,83965,5,H,A,known,40
6657.825000002049,bird,98630,8,E,J,known,40
12076.97500003269,airplane,112062,10,J,F,known,40
7398.764999990817,flower,125749,13,7,4,unknown,40
6917.499999981374,butterfly,133773,15,6,5,unknown,40
4807.704999984708,apple,140686,17,9,5,unknown,40
6830.995000025723,fork,149626,19,NA,NA,NA,40
3110.510000027716,tree,154595,21,NA,NA,NA,40
5195.310000039171,tree,161648,23,NA,NA,NA,40
3998.005000001285,tree,167752,25,NA,NA,NA,40
4582.800000032876,ring,175443,27,NA,NA,NA,40
28294.070000003558,rock,205845,29,NA,NA,NA,40
21300.95500004245,spinning top,228503,31,NA,NA,NA,40
16495.950000011362,spiky dog toy,246105,33,NA,NA,NA,40
5833.2550000050105,art,252793,35,NA,NA,NA,40
24820.03999996232,spiky dumbell,280720,37,NA,NA,NA,40
9890.35000000149,spiky dumbell,291965,39,NA,NA,NA,40
9257.110000005923,spiky dumbell,302330,41,NA,NA,NA,40
14730.655000021216,spiky rock,320170,43,NA,NA,NA,40
4242,BIRD,25256,1,practiceDistractor1,practiceTarget1,practice,38
11812,art,41694,3,L,G,known,38
5470,Stan,49862,5,F,H,known,38
34902,bird,92776,8,C,B,known,38
4378,plane,99012,10,B,I,known,38
2380,fork,103806,13,10,12,unknown,38
3812,chair with high back,109726,15,1,8,unknown,38
2328,dice,113212,17,5,8,unknown,38
1854,pen,115924,19,NA,NA,NA,38
1904,cat,118936,21,NA,NA,NA,38
1680,cat,122724,23,NA,NA,NA,38
2012,cat,126344,25,NA,NA,NA,38
2030,car,131482,27,NA,NA,NA,38
17016,weird shapped fan thing with the bullseye looking air duct,151120,29,NA,NA,NA,38
17130,weight shapped thing that looks like it has a bottle end and an arm throuigh it,170892,31,NA,NA,NA,38
5110,symbol looking thing,177112,33,NA,NA,NA,38
22134,looks like napkins folding over,200108,35,NA,NA,NA,38
11222,looks like a shattered vase,213188,37,NA,NA,NA,38
3672,shattered vase,218970,39,NA,NA,NA,38
3918,shattered vase,224006,41,NA,NA,NA,38
5738,three arm cactus thing,231104,43,NA,NA,NA,38
7547.55500000465,bird,388822,1,practiceDistractor1,practiceTarget1,practice,36
12053.010000003269,art,404366,3,L,K,known,36
62400.274999999965,borgy,469474,5,C,I,known,36
2884.1299999985495,bird,480377,8,H,G,known,36
4915.3799999985495,plane,486906,10,G,J,known,36
3255.6750000003376,butterfly,493590,13,5,1,unknown,36
1646.3550000044052,cat,496599,15,9,11,unknown,36
1786.6999999969266,car,499996,17,7,11,unknown,36
1823.499999998603,ring,502932,19,NA,NA,NA,36
1890.3449999997974,fork,506184,21,NA,NA,NA,36
1446.220000005269,fork,508491,23,NA,NA,NA,36
1262.8050000057556,fork,511366,25,NA,NA,NA,36
2075.555000003078,tree,515055,27,NA,NA,NA,36
7015.309999995225,container,522934,29,NA,NA,NA,36
19992.734999999753,white and black object,543804,31,NA,NA,NA,36
7884.465000002761,vertical art,552807,33,NA,NA,NA,36
5048.985000001267,spiky toy,559220,35,NA,NA,NA,36
10509.930000000168,dark fat jack,570844,37,NA,NA,NA,36
3988.964999996824,dark fat jack,576197,39,NA,NA,NA,36
4614.824999996927,dark fat jack,582718,41,NA,NA,NA,36
22796.390000003157,object with concentric rings on it,606634,43,NA,NA,NA,36
10641.474999953061,bird,137075,1,practiceDistractor1,practiceTarget1,practice,13
8678.300000261515,art,148441,3,E,K,known,13
6094.705000054091,apricot,157436,5,C,B,known,13
5158.114999998361,bird,170600,8,I,G,known,13
4597.504999954253,airplane,176551,10,G,A,known,13
4232.249999884516,butterfly,183708,13,9,1,unknown,13
2399.1650003008544,tree,188213,15,8,11,unknown,13
1990.5850002542138,cat,191558,17,10,11,unknown,13
2921.700000297278,pen,196333,19,NA,NA,NA,13
1610.4000001214445,fork,199297,21,NA,NA,NA,13
2445.3300000168383,fork,203096,23,NA,NA,NA,13
1529.7249997965991,fork,206232,25,NA,NA,NA,13
1891.764999832958,apple,210728,27,NA,NA,NA,13
9271.59499982372,iceberg,223104,29,NA,NA,NA,13
10553.94500028342,drum symbal,235512,31,NA,NA,NA,13
11610.969999805093,goldfish sculpture,248728,33,NA,NA,NA,13
9994.21999976039,loop thing,259576,35,NA,NA,NA,13
11259.71999997273,black shape,272440,37,NA,NA,NA,13
10495.949999894947,black shape with 4 bumps,286044,39,NA,NA,NA,13
4264.144999906421,black shape with 4 bumps,291912,41,NA,NA,NA,13
19366.665000095963,spiky 3 pronged object,312632,43,NA,NA,NA,13
