rt,response,locator,time_elapsed,trial,distractor,target,type,id,file,occurrence,switch,negation
3471.8299999367400,die,NA,112702,3,2,H,known,1,/Users/dan/Projects/callab/tunkel/Negation2.0/Experiment2/contrastA/production-results/338GLSUI43000P00OVVDPY4H9ZUSFJ-3G5W44VEU87BCQHHK8XV4H8A7RHGK5.json,1,standard,FALSE
15917.024999973400,thing that looks like a closed plunger,NA,131726,4,C,10,unknown,1,/Users/dan/Projects/callab/tunkel/Negation2.0/Experiment2/contrastA/production-results/338GLSUI43000P00OVVDPY4H9ZUSFJ-3G5W44VEU87BCQHHK8XV4H8A7RHGK5.json,1,standard,FALSE
25029.82999989760,circle donut thingy with marshmallow sticks in it,NA,158864,5,J,4,unknown,1,/Users/dan/Projects/callab/tunkel/Negation2.0/Experiment2/contrastA/production-results/338GLSUI43000P00OVVDPY4H9ZUSFJ-3G5W44VEU87BCQHHK8XV4H8A7RHGK5.json,1,standard,FALSE
7481.565000023690,flutterbye,NA,167452,6,9,K,known,1,/Users/dan/Projects/callab/tunkel/Negation2.0/Experiment2/contrastA/production-results/338GLSUI43000P00OVVDPY4H9ZUSFJ-3G5W44VEU87BCQHHK8XV4H8A7RHGK5.json,1,standard,FALSE
16165.830000070900,ring with large gem,NA,184726,7,16,F,known,1,/Users/dan/Projects/callab/tunkel/Negation2.0/Experiment2/contrastA/production-results/338GLSUI43000P00OVVDPY4H9ZUSFJ-3G5W44VEU87BCQHHK8XV4H8A7RHGK5.json,1,standard,FALSE
20889.72500001550,ring with rounded ornament,NA,208722,8,11,F,known,1,/Users/dan/Projects/callab/tunkel/Negation2.0/Experiment2/contrastA/production-results/338GLSUI43000P00OVVDPY4H9ZUSFJ-3G5W44VEU87BCQHHK8XV4H8A7RHGK5.json,2,standard,FALSE
19562.620000098800,ring with domed ornament,NA,229390,9,12,F,known,1,/Users/dan/Projects/callab/tunkel/Negation2.0/Experiment2/contrastA/production-results/338GLSUI43000P00OVVDPY4H9ZUSFJ-3G5W44VEU87BCQHHK8XV4H8A7RHGK5.json,3,standard,FALSE
9193.969999905680,spiky mine balls,NA,240190,10,F,1,unknown,1,/Users/dan/Projects/callab/tunkel/Negation2.0/Experiment2/contrastA/production-results/338GLSUI43000P00OVVDPY4H9ZUSFJ-3G5W44VEU87BCQHHK8XV4H8A7RHGK5.json,1,switch,FALSE
12530.664999969300,white iceberg looking thing,NA,254828,11,I,3,unknown,1,/Users/dan/Projects/callab/tunkel/Negation2.0/Experiment2/contrastA/production-results/338GLSUI43000P00OVVDPY4H9ZUSFJ-3G5W44VEU87BCQHHK8XV4H8A7RHGK5.json,1,standard,FALSE
10304.784999927500,traditional wooden chair,NA,266237,12,6,E,known,1,/Users/dan/Projects/callab/tunkel/Negation2.0/Experiment2/contrastA/production-results/338GLSUI43000P00OVVDPY4H9ZUSFJ-3G5W44VEU87BCQHHK8XV4H8A7RHGK5.json,1,standard,FALSE
16801.304999971800,block puzzle,NA,285643,13,B,15,unknown,1,/Users/dan/Projects/callab/tunkel/Negation2.0/Experiment2/contrastA/production-results/338GLSUI43000P00OVVDPY4H9ZUSFJ-3G5W44VEU87BCQHHK8XV4H8A7RHGK5.json,1,standard,FALSE
8513.489999924790,glass mug,NA,295013,14,8,M,known,1,/Users/dan/Projects/callab/tunkel/Negation2.0/Experiment2/contrastA/production-results/338GLSUI43000P00OVVDPY4H9ZUSFJ-3G5W44VEU87BCQHHK8XV4H8A7RHGK5.json,1,standard,FALSE
31797.36999992750,things that looks like a dumbbell with three points on each end,NA,328917,15,A,5,unknown,1,/Users/dan/Projects/callab/tunkel/Negation2.0/Experiment2/contrastA/production-results/338GLSUI43000P00OVVDPY4H9ZUSFJ-3G5W44VEU87BCQHHK8XV4H8A7RHGK5.json,1,standard,FALSE
68303.53500007190,abstract dumbbell,NA,398329,16,D,5,unknown,1,/Users/dan/Projects/callab/tunkel/Negation2.0/Experiment2/contrastA/production-results/338GLSUI43000P00OVVDPY4H9ZUSFJ-3G5W44VEU87BCQHHK8XV4H8A7RHGK5.json,2,standard,FALSE
15170.345000107800,bar with 3 points on each end,NA,416607,17,N,5,unknown,1,/Users/dan/Projects/callab/tunkel/Negation2.0/Experiment2/contrastA/production-results/338GLSUI43000P00OVVDPY4H9ZUSFJ-3G5W44VEU87BCQHHK8XV4H8A7RHGK5.json,3,standard,FALSE
6366.189999971540,sunflower,NA,424081,18,5,L,known,1,/Users/dan/Projects/callab/tunkel/Negation2.0/Experiment2/contrastA/production-results/338GLSUI43000P00OVVDPY4H9ZUSFJ-3G5W44VEU87BCQHHK8XV4H8A7RHGK5.json,1,switch,FALSE
3498.7100000144000,blimp,NA,79406,3,I,16,unknown,2,/Users/dan/Projects/callab/tunkel/Negation2.0/Experiment2/contrastB/production-results/3NFWQRSHVE3XAKR9TV1W0KLELO1FGN-34FNN24DCNY8GYHE7RFV9SWWFW15YU.json,1,standard,FALSE
3583.63000000827,apple,NA,84348,4,11,A,known,2,/Users/dan/Projects/callab/tunkel/Negation2.0/Experiment2/contrastB/production-results/3NFWQRSHVE3XAKR9TV1W0KLELO1FGN-34FNN24DCNY8GYHE7RFV9SWWFW15YU.json,1,standard,FALSE
3792.1600000117900,thing,NA,88998,5,N,5,unknown,2,/Users/dan/Projects/callab/tunkel/Negation2.0/Experiment2/contrastB/production-results/3NFWQRSHVE3XAKR9TV1W0KLELO1FGN-34FNN24DCNY8GYHE7RFV9SWWFW15YU.json,1,standard,FALSE
2798.160000005740,die,NA,93407,6,9,H,known,2,/Users/dan/Projects/callab/tunkel/Negation2.0/Experiment2/contrastB/production-results/3NFWQRSHVE3XAKR9TV1W0KLELO1FGN-34FNN24DCNY8GYHE7RFV9SWWFW15YU.json,1,standard,FALSE
5563.12499998603,spikes,NA,101578,7,F,4,unknown,2,/Users/dan/Projects/callab/tunkel/Negation2.0/Experiment2/contrastB/production-results/3NFWQRSHVE3XAKR9TV1W0KLELO1FGN-34FNN24DCNY8GYHE7RFV9SWWFW15YU.json,1,standard,FALSE
2678.299999970480,spikes,NA,105367,8,E,4,unknown,2,/Users/dan/Projects/callab/tunkel/Negation2.0/Experiment2/contrastB/production-results/3NFWQRSHVE3XAKR9TV1W0KLELO1FGN-34FNN24DCNY8GYHE7RFV9SWWFW15YU.json,2,standard,FALSE
2088.385000010020,spikes,NA,109314,9,L,4,unknown,2,/Users/dan/Projects/callab/tunkel/Negation2.0/Experiment2/contrastB/production-results/3NFWQRSHVE3XAKR9TV1W0KLELO1FGN-34FNN24DCNY8GYHE7RFV9SWWFW15YU.json,3,standard,FALSE
2043.4499999973900,mug,NA,113217,10,4,M,known,2,/Users/dan/Projects/callab/tunkel/Negation2.0/Experiment2/contrastB/production-results/3NFWQRSHVE3XAKR9TV1W0KLELO1FGN-34FNN24DCNY8GYHE7RFV9SWWFW15YU.json,1,switch,FALSE
2154.080000007530,shoe,NA,117481,11,1,C,known,2,/Users/dan/Projects/callab/tunkel/Negation2.0/Experiment2/contrastB/production-results/3NFWQRSHVE3XAKR9TV1W0KLELO1FGN-34FNN24DCNY8GYHE7RFV9SWWFW15YU.json,1,standard,FALSE
2910.749999980910,thing,NA,121248,12,G,7,unknown,2,/Users/dan/Projects/callab/tunkel/Negation2.0/Experiment2/contrastB/production-results/3NFWQRSHVE3XAKR9TV1W0KLELO1FGN-34FNN24DCNY8GYHE7RFV9SWWFW15YU.json,1,standard,FALSE
3121.8700000317800,thing,NA,125728,13,B,2,unknown,2,/Users/dan/Projects/callab/tunkel/Negation2.0/Experiment2/contrastB/production-results/3NFWQRSHVE3XAKR9TV1W0KLELO1FGN-34FNN24DCNY8GYHE7RFV9SWWFW15YU.json,1,standard,FALSE
2247.655000013770,butterfly,NA,129585,14,10,K,known,2,/Users/dan/Projects/callab/tunkel/Negation2.0/Experiment2/contrastB/production-results/3NFWQRSHVE3XAKR9TV1W0KLELO1FGN-34FNN24DCNY8GYHE7RFV9SWWFW15YU.json,1,standard,FALSE
1548.5449999687300,pen,NA,131993,15,12,D,known,2,/Users/dan/Projects/callab/tunkel/Negation2.0/Experiment2/contrastB/production-results/3NFWQRSHVE3XAKR9TV1W0KLELO1FGN-34FNN24DCNY8GYHE7RFV9SWWFW15YU.json,1,standard,FALSE
1532.535000005740,pen,NA,134632,16,15,D,known,2,/Users/dan/Projects/callab/tunkel/Negation2.0/Experiment2/contrastB/production-results/3NFWQRSHVE3XAKR9TV1W0KLELO1FGN-34FNN24DCNY8GYHE7RFV9SWWFW15YU.json,2,standard,FALSE
1327.3150000022700,pen,NA,139064,17,8,D,known,2,/Users/dan/Projects/callab/tunkel/Negation2.0/Experiment2/contrastB/production-results/3NFWQRSHVE3XAKR9TV1W0KLELO1FGN-34FNN24DCNY8GYHE7RFV9SWWFW15YU.json,3,standard,FALSE
1886.9399999966800,thing,NA,142560,18,D,3,unknown,2,/Users/dan/Projects/callab/tunkel/Negation2.0/Experiment2/contrastB/production-results/3NFWQRSHVE3XAKR9TV1W0KLELO1FGN-34FNN24DCNY8GYHE7RFV9SWWFW15YU.json,1,switch,FALSE
3685,Flower,NA,121279,3,11,L,known,3,/Users/dan/Projects/callab/tunkel/Negation2.0/Experiment2/contrastA/production-results/338GLSUI43000P00OVVDPY4H9ZUSFJ-35LDD5557BTB40D3VBVQHMS73CRMKF.json,1,standard,FALSE
11081,Squeezing tool,NA,135465,4,M,10,unknown,3,/Users/dan/Projects/callab/tunkel/Negation2.0/Experiment2/contrastA/production-results/338GLSUI43000P00OVVDPY4H9ZUSFJ-35LDD5557BTB40D3VBVQHMS73CRMKF.json,1,standard,FALSE
10242,Strange shape,NA,148311,5,I,5,unknown,3,/Users/dan/Projects/callab/tunkel/Negation2.0/Experiment2/contrastA/production-results/338GLSUI43000P00OVVDPY4H9ZUSFJ-35LDD5557BTB40D3VBVQHMS73CRMKF.json,1,standard,FALSE
2787,Tree,NA,152458,6,4,J,known,3,/Users/dan/Projects/callab/tunkel/Negation2.0/Experiment2/contrastA/production-results/338GLSUI43000P00OVVDPY4H9ZUSFJ-35LDD5557BTB40D3VBVQHMS73CRMKF.json,1,standard,FALSE
2470,Cat,NA,158039,7,8,B,known,3,/Users/dan/Projects/callab/tunkel/Negation2.0/Experiment2/contrastA/production-results/338GLSUI43000P00OVVDPY4H9ZUSFJ-35LDD5557BTB40D3VBVQHMS73CRMKF.json,1,standard,FALSE
3063,Cat,NA,161960,8,6,B,known,3,/Users/dan/Projects/callab/tunkel/Negation2.0/Experiment2/contrastA/production-results/338GLSUI43000P00OVVDPY4H9ZUSFJ-35LDD5557BTB40D3VBVQHMS73CRMKF.json,2,standard,FALSE
3017,Cat,NA,167080,9,7,B,known,3,/Users/dan/Projects/callab/tunkel/Negation2.0/Experiment2/contrastA/production-results/338GLSUI43000P00OVVDPY4H9ZUSFJ-35LDD5557BTB40D3VBVQHMS73CRMKF.json,3,standard,FALSE
6097,Toy,NA,174280,10,B,15,unknown,3,/Users/dan/Projects/callab/tunkel/Negation2.0/Experiment2/contrastA/production-results/338GLSUI43000P00OVVDPY4H9ZUSFJ-35LDD5557BTB40D3VBVQHMS73CRMKF.json,1,switch,FALSE
10081,Oval shape,NA,185714,11,K,16,unknown,3,/Users/dan/Projects/callab/tunkel/Negation2.0/Experiment2/contrastA/production-results/338GLSUI43000P00OVVDPY4H9ZUSFJ-35LDD5557BTB40D3VBVQHMS73CRMKF.json,1,standard,FALSE
3154,Chair,NA,189721,12,3,E,known,3,/Users/dan/Projects/callab/tunkel/Negation2.0/Experiment2/contrastA/production-results/338GLSUI43000P00OVVDPY4H9ZUSFJ-35LDD5557BTB40D3VBVQHMS73CRMKF.json,1,standard,FALSE
8520,Spiked circle,NA,200844,13,A,1,unknown,3,/Users/dan/Projects/callab/tunkel/Negation2.0/Experiment2/contrastA/production-results/338GLSUI43000P00OVVDPY4H9ZUSFJ-35LDD5557BTB40D3VBVQHMS73CRMKF.json,1,standard,FALSE
3306,Fork,NA,206254,14,9,G,known,3,/Users/dan/Projects/callab/tunkel/Negation2.0/Experiment2/contrastA/production-results/338GLSUI43000P00OVVDPY4H9ZUSFJ-35LDD5557BTB40D3VBVQHMS73CRMKF.json,1,standard,FALSE
6902,Spinning thing,NA,215259,15,N,12,unknown,3,/Users/dan/Projects/callab/tunkel/Negation2.0/Experiment2/contrastA/production-results/338GLSUI43000P00OVVDPY4H9ZUSFJ-35LDD5557BTB40D3VBVQHMS73CRMKF.json,1,standard,FALSE
6110,Spinning thing,NA,223223,16,D,12,unknown,3,/Users/dan/Projects/callab/tunkel/Negation2.0/Experiment2/contrastA/production-results/338GLSUI43000P00OVVDPY4H9ZUSFJ-35LDD5557BTB40D3VBVQHMS73CRMKF.json,2,standard,FALSE
2773,Spinning thing,NA,227349,17,C,12,unknown,3,/Users/dan/Projects/callab/tunkel/Negation2.0/Experiment2/contrastA/production-results/338GLSUI43000P00OVVDPY4H9ZUSFJ-35LDD5557BTB40D3VBVQHMS73CRMKF.json,3,standard,FALSE
3610,Dice,NA,232061,18,12,H,known,3,/Users/dan/Projects/callab/tunkel/Negation2.0/Experiment2/contrastA/production-results/338GLSUI43000P00OVVDPY4H9ZUSFJ-35LDD5557BTB40D3VBVQHMS73CRMKF.json,1,switch,FALSE
9465.255000046450,Not a shoe,NA,162887,3,C,5,unknown,4,/Users/dan/Projects/callab/tunkel/Negation2.0/Experiment2/contrastB/production-results/3ZLW647WALKCFE39ALF5X72G8FR32J-39ASUFLU6YWJCCKXDWMWU8V0QJFXEQ.json,1,standard,FALSE
7474.030000041240,cup,NA,171217,4,15,M,known,4,/Users/dan/Projects/callab/tunkel/Negation2.0/Experiment2/contrastB/production-results/3ZLW647WALKCFE39ALF5X72G8FR32J-39ASUFLU6YWJCCKXDWMWU8V0QJFXEQ.json,1,standard,FALSE
9578.244999982420,not butterfly,NA,182407,5,K,9,unknown,4,/Users/dan/Projects/callab/tunkel/Negation2.0/Experiment2/contrastB/production-results/3ZLW647WALKCFE39ALF5X72G8FR32J-39ASUFLU6YWJCCKXDWMWU8V0QJFXEQ.json,1,standard,TRUE
5794.559999951160,die,NA,189311,6,2,H,known,4,/Users/dan/Projects/callab/tunkel/Negation2.0/Experiment2/contrastB/production-results/3ZLW647WALKCFE39ALF5X72G8FR32J-39ASUFLU6YWJCCKXDWMWU8V0QJFXEQ.json,1,standard,FALSE
6784.820000058970,not a tree,NA,197706,7,J,4,unknown,4,/Users/dan/Projects/callab/tunkel/Negation2.0/Experiment2/contrastB/production-results/3ZLW647WALKCFE39ALF5X72G8FR32J-39ASUFLU6YWJCCKXDWMWU8V0QJFXEQ.json,1,standard,TRUE
6696.044999989680,not a ring,NA,205760,8,F,4,unknown,4,/Users/dan/Projects/callab/tunkel/Negation2.0/Experiment2/contrastB/production-results/3ZLW647WALKCFE39ALF5X72G8FR32J-39ASUFLU6YWJCCKXDWMWU8V0QJFXEQ.json,2,standard,TRUE
5354.034999967550,not a pen,NA,212973,9,D,4,unknown,4,/Users/dan/Projects/callab/tunkel/Negation2.0/Experiment2/contrastB/production-results/3ZLW647WALKCFE39ALF5X72G8FR32J-39ASUFLU6YWJCCKXDWMWU8V0QJFXEQ.json,3,standard,TRUE
3932.1800000034300,apple,NA,219517,10,4,A,known,4,/Users/dan/Projects/callab/tunkel/Negation2.0/Experiment2/contrastB/production-results/3ZLW647WALKCFE39ALF5X72G8FR32J-39ASUFLU6YWJCCKXDWMWU8V0QJFXEQ.json,1,switch,FALSE
3781.87499998603,flower,NA,225410,11,16,L,known,4,/Users/dan/Projects/callab/tunkel/Negation2.0/Experiment2/contrastB/production-results/3ZLW647WALKCFE39ALF5X72G8FR32J-39ASUFLU6YWJCCKXDWMWU8V0QJFXEQ.json,1,standard,FALSE
6214.389999979180,not chair,NA,232985,12,E,8,unknown,4,/Users/dan/Projects/callab/tunkel/Negation2.0/Experiment2/contrastB/production-results/3ZLW647WALKCFE39ALF5X72G8FR32J-39ASUFLU6YWJCCKXDWMWU8V0QJFXEQ.json,1,standard,TRUE
6393.784999963830,not crab,NA,242488,13,N,11,unknown,4,/Users/dan/Projects/callab/tunkel/Negation2.0/Experiment2/contrastB/production-results/3ZLW647WALKCFE39ALF5X72G8FR32J-39ASUFLU6YWJCCKXDWMWU8V0QJFXEQ.json,1,standard,TRUE
3563.2149999728400,fork,NA,247662,14,12,G,known,4,/Users/dan/Projects/callab/tunkel/Negation2.0/Experiment2/contrastB/production-results/3ZLW647WALKCFE39ALF5X72G8FR32J-39ASUFLU6YWJCCKXDWMWU8V0QJFXEQ.json,1,standard,FALSE
3091.7200000258200,cat,NA,252614,15,6,B,known,4,/Users/dan/Projects/callab/tunkel/Negation2.0/Experiment2/contrastB/production-results/3ZLW647WALKCFE39ALF5X72G8FR32J-39ASUFLU6YWJCCKXDWMWU8V0QJFXEQ.json,1,standard,FALSE
1929.7849999275100,cat,NA,256402,16,3,B,known,4,/Users/dan/Projects/callab/tunkel/Negation2.0/Experiment2/contrastB/production-results/3ZLW647WALKCFE39ALF5X72G8FR32J-39ASUFLU6YWJCCKXDWMWU8V0QJFXEQ.json,2,standard,FALSE
1919.080000021500,cat,NA,260930,17,1,B,known,4,/Users/dan/Projects/callab/tunkel/Negation2.0/Experiment2/contrastB/production-results/3ZLW647WALKCFE39ALF5X72G8FR32J-39ASUFLU6YWJCCKXDWMWU8V0QJFXEQ.json,3,standard,FALSE
5441.635000053790,not cat,NA,267731,18,B,10,unknown,4,/Users/dan/Projects/callab/tunkel/Negation2.0/Experiment2/contrastB/production-results/3ZLW647WALKCFE39ALF5X72G8FR32J-39ASUFLU6YWJCCKXDWMWU8V0QJFXEQ.json,1,switch,TRUE
2555.2349999779800,shoe,NA,111602,3,11,C,known,5,/Users/dan/Projects/callab/tunkel/Negation2.0/Experiment2/contrastA/production-results/3JUDR1D0D6G4MF9B8WR1AFVRI74Q28-39GHHAVOMGG0PQIF7MVIUDBU2WX4JU.json,1,standard,FALSE
8509.759999986270,toy,NA,122745,4,E,12,unknown,5,/Users/dan/Projects/callab/tunkel/Negation2.0/Experiment2/contrastA/production-results/3JUDR1D0D6G4MF9B8WR1AFVRI74Q28-39GHHAVOMGG0PQIF7MVIUDBU2WX4JU.json,1,standard,FALSE
17777.60999999010,art,NA,141906,5,F,7,unknown,5,/Users/dan/Projects/callab/tunkel/Negation2.0/Experiment2/contrastA/production-results/3JUDR1D0D6G4MF9B8WR1AFVRI74Q28-39GHHAVOMGG0PQIF7MVIUDBU2WX4JU.json,1,standard,FALSE
4163.000000000470,fork,NA,147452,6,3,G,known,5,/Users/dan/Projects/callab/tunkel/Negation2.0/Experiment2/contrastA/production-results/3JUDR1D0D6G4MF9B8WR1AFVRI74Q28-39GHHAVOMGG0PQIF7MVIUDBU2WX4JU.json,1,standard,FALSE
2297.0149999600800,crab,NA,150612,7,9,N,known,5,/Users/dan/Projects/callab/tunkel/Negation2.0/Experiment2/contrastA/production-results/3JUDR1D0D6G4MF9B8WR1AFVRI74Q28-39GHHAVOMGG0PQIF7MVIUDBU2WX4JU.json,1,standard,FALSE
2310.8249999932000,crab,NA,155045,8,4,N,known,5,/Users/dan/Projects/callab/tunkel/Negation2.0/Experiment2/contrastA/production-results/3JUDR1D0D6G4MF9B8WR1AFVRI74Q28-39GHHAVOMGG0PQIF7MVIUDBU2WX4JU.json,2,standard,FALSE
2424.5200000004800,crab,NA,158329,9,8,N,known,5,/Users/dan/Projects/callab/tunkel/Negation2.0/Experiment2/contrastA/production-results/3JUDR1D0D6G4MF9B8WR1AFVRI74Q28-39GHHAVOMGG0PQIF7MVIUDBU2WX4JU.json,3,standard,FALSE
8491.135000018400,plastic,NA,167683,10,N,6,unknown,5,/Users/dan/Projects/callab/tunkel/Negation2.0/Experiment2/contrastA/production-results/3JUDR1D0D6G4MF9B8WR1AFVRI74Q28-39GHHAVOMGG0PQIF7MVIUDBU2WX4JU.json,1,switch,FALSE
24434.674999967700,plunger looking thing,NA,194731,11,A,10,unknown,5,/Users/dan/Projects/callab/tunkel/Negation2.0/Experiment2/contrastA/production-results/3JUDR1D0D6G4MF9B8WR1AFVRI74Q28-39GHHAVOMGG0PQIF7MVIUDBU2WX4JU.json,1,standard,FALSE
2007.015000039250,tree,NA,198858,12,15,J,known,5,/Users/dan/Projects/callab/tunkel/Negation2.0/Experiment2/contrastA/production-results/3JUDR1D0D6G4MF9B8WR1AFVRI74Q28-39GHHAVOMGG0PQIF7MVIUDBU2WX4JU.json,1,standard,FALSE
4909.3400000128900,dog toy,NA,206894,13,L,2,unknown,5,/Users/dan/Projects/callab/tunkel/Negation2.0/Experiment2/contrastA/production-results/3JUDR1D0D6G4MF9B8WR1AFVRI74Q28-39GHHAVOMGG0PQIF7MVIUDBU2WX4JU.json,1,standard,FALSE
5510.424999985840,dice,NA,213775,14,5,H,known,5,/Users/dan/Projects/callab/tunkel/Negation2.0/Experiment2/contrastA/production-results/3JUDR1D0D6G4MF9B8WR1AFVRI74Q28-39GHHAVOMGG0PQIF7MVIUDBU2WX4JU.json,1,standard,FALSE
3738.7350000208200,toy,NA,218625,15,I,16,unknown,5,/Users/dan/Projects/callab/tunkel/Negation2.0/Experiment2/contrastA/production-results/3JUDR1D0D6G4MF9B8WR1AFVRI74Q28-39GHHAVOMGG0PQIF7MVIUDBU2WX4JU.json,1,standard,FALSE
2161.0599999548900,toy,NA,223892,16,D,16,unknown,5,/Users/dan/Projects/callab/tunkel/Negation2.0/Experiment2/contrastA/production-results/3JUDR1D0D6G4MF9B8WR1AFVRI74Q28-39GHHAVOMGG0PQIF7MVIUDBU2WX4JU.json,2,standard,FALSE
1345.2849999885100,toy,NA,227101,17,M,16,unknown,5,/Users/dan/Projects/callab/tunkel/Negation2.0/Experiment2/contrastA/production-results/3JUDR1D0D6G4MF9B8WR1AFVRI74Q28-39GHHAVOMGG0PQIF7MVIUDBU2WX4JU.json,3,standard,FALSE
1708.669999963600,cat,NA,229932,18,16,B,known,5,/Users/dan/Projects/callab/tunkel/Negation2.0/Experiment2/contrastA/production-results/3JUDR1D0D6G4MF9B8WR1AFVRI74Q28-39GHHAVOMGG0PQIF7MVIUDBU2WX4JU.json,1,switch,FALSE
10205.629999999500,spin,NA,159881,3,H,12,unknown,6,/Users/dan/Projects/callab/tunkel/Negation2.0/Experiment2/contrastB/production-results/3ZLW647WALKCFE39ALF5X72G8FR32J-36WLNQG780ZCZ9HW80UE5B487GXEB4.json,1,standard,FALSE
7783.134999999690,write,NA,169770,4,6,D,known,6,/Users/dan/Projects/callab/tunkel/Negation2.0/Experiment2/contrastB/production-results/3ZLW647WALKCFE39ALF5X72G8FR32J-36WLNQG780ZCZ9HW80UE5B487GXEB4.json,1,standard,FALSE
12695.455000000000,pointy,NA,184570,5,I,5,unknown,6,/Users/dan/Projects/callab/tunkel/Negation2.0/Experiment2/contrastB/production-results/3ZLW647WALKCFE39ALF5X72G8FR32J-36WLNQG780ZCZ9HW80UE5B487GXEB4.json,1,standard,FALSE
14028.795000000200,sit,NA,201703,6,4,E,known,6,/Users/dan/Projects/callab/tunkel/Negation2.0/Experiment2/contrastB/production-results/3ZLW647WALKCFE39ALF5X72G8FR32J-36WLNQG780ZCZ9HW80UE5B487GXEB4.json,1,standard,FALSE
12614.494999999800,puzzle,NA,215173,7,J,15,unknown,6,/Users/dan/Projects/callab/tunkel/Negation2.0/Experiment2/contrastB/production-results/3ZLW647WALKCFE39ALF5X72G8FR32J-36WLNQG780ZCZ9HW80UE5B487GXEB4.json,1,standard,FALSE
8978.61499999999,blocks,NA,225006,8,A,15,unknown,6,/Users/dan/Projects/callab/tunkel/Negation2.0/Experiment2/contrastB/production-results/3ZLW647WALKCFE39ALF5X72G8FR32J-36WLNQG780ZCZ9HW80UE5B487GXEB4.json,2,standard,FALSE
10157.760000000100,shapes,NA,238269,9,G,15,unknown,6,/Users/dan/Projects/callab/tunkel/Negation2.0/Experiment2/contrastB/production-results/3ZLW647WALKCFE39ALF5X72G8FR32J-36WLNQG780ZCZ9HW80UE5B487GXEB4.json,3,standard,FALSE
11918.67999999980,seafood,NA,251543,10,15,N,known,6,/Users/dan/Projects/callab/tunkel/Negation2.0/Experiment2/contrastB/production-results/3ZLW647WALKCFE39ALF5X72G8FR32J-36WLNQG780ZCZ9HW80UE5B487GXEB4.json,1,switch,FALSE
12795.265000000700,finger,NA,267444,11,11,F,known,6,/Users/dan/Projects/callab/tunkel/Negation2.0/Experiment2/contrastB/production-results/3ZLW647WALKCFE39ALF5X72G8FR32J-36WLNQG780ZCZ9HW80UE5B487GXEB4.json,1,standard,FALSE
13699.129999999900,tube,NA,283249,12,C,2,unknown,6,/Users/dan/Projects/callab/tunkel/Negation2.0/Experiment2/contrastB/production-results/3ZLW647WALKCFE39ALF5X72G8FR32J-36WLNQG780ZCZ9HW80UE5B487GXEB4.json,1,standard,FALSE
11307.734999999400,duster,NA,295412,13,K,10,unknown,6,/Users/dan/Projects/callab/tunkel/Negation2.0/Experiment2/contrastB/production-results/3ZLW647WALKCFE39ALF5X72G8FR32J-36WLNQG780ZCZ9HW80UE5B487GXEB4.json,1,standard,FALSE
8651.985000000450,plants,NA,306671,14,9,L,known,6,/Users/dan/Projects/callab/tunkel/Negation2.0/Experiment2/contrastB/production-results/3ZLW647WALKCFE39ALF5X72G8FR32J-36WLNQG780ZCZ9HW80UE5B487GXEB4.json,1,standard,FALSE
6318.610000000280,pet,NA,314846,15,7,B,known,6,/Users/dan/Projects/callab/tunkel/Negation2.0/Experiment2/contrastB/production-results/3ZLW647WALKCFE39ALF5X72G8FR32J-36WLNQG780ZCZ9HW80UE5B487GXEB4.json,1,standard,FALSE
3751.1549999999100,pet,NA,320702,16,16,B,known,6,/Users/dan/Projects/callab/tunkel/Negation2.0/Experiment2/contrastB/production-results/3ZLW647WALKCFE39ALF5X72G8FR32J-36WLNQG780ZCZ9HW80UE5B487GXEB4.json,2,standard,FALSE
6268.884999999490,pet,NA,329079,17,3,B,known,6,/Users/dan/Projects/callab/tunkel/Negation2.0/Experiment2/contrastB/production-results/3ZLW647WALKCFE39ALF5X72G8FR32J-36WLNQG780ZCZ9HW80UE5B487GXEB4.json,3,standard,FALSE
6398.694999999890,spikey,NA,338083,18,B,1,unknown,6,/Users/dan/Projects/callab/tunkel/Negation2.0/Experiment2/contrastB/production-results/3ZLW647WALKCFE39ALF5X72G8FR32J-36WLNQG780ZCZ9HW80UE5B487GXEB4.json,1,switch,FALSE
8618.405000073840,art,NA,75327,3,K,12,unknown,7,/Users/dan/Projects/callab/tunkel/Negation2.0/Experiment2/contrastB/production-results/34R0BODSP1O7O92THOYZE59PJE85ED-30OG32W0SV0E0I6TBQZNW642O5VNEM.json,1,standard,FALSE
2940.140000078830,shoe,NA,80385,4,7,C,known,7,/Users/dan/Projects/callab/tunkel/Negation2.0/Experiment2/contrastB/production-results/34R0BODSP1O7O92THOYZE59PJE85ED-30OG32W0SV0E0I6TBQZNW642O5VNEM.json,1,standard,FALSE
4047.524999943560,art,NA,86566,5,M,3,unknown,7,/Users/dan/Projects/callab/tunkel/Negation2.0/Experiment2/contrastB/production-results/34R0BODSP1O7O92THOYZE59PJE85ED-30OG32W0SV0E0I6TBQZNW642O5VNEM.json,1,standard,FALSE
2572.1299999859200,cat,NA,91750,6,9,B,known,7,/Users/dan/Projects/callab/tunkel/Negation2.0/Experiment2/contrastB/production-results/34R0BODSP1O7O92THOYZE59PJE85ED-30OG32W0SV0E0I6TBQZNW642O5VNEM.json,1,standard,FALSE
23907.780000008600,art,NA,117017,7,H,4,unknown,7,/Users/dan/Projects/callab/tunkel/Negation2.0/Experiment2/contrastB/production-results/34R0BODSP1O7O92THOYZE59PJE85ED-30OG32W0SV0E0I6TBQZNW642O5VNEM.json,1,standard,FALSE
5278.460000059570,art,NA,123903,8,F,4,unknown,7,/Users/dan/Projects/callab/tunkel/Negation2.0/Experiment2/contrastB/production-results/34R0BODSP1O7O92THOYZE59PJE85ED-30OG32W0SV0E0I6TBQZNW642O5VNEM.json,2,standard,FALSE
2906.965000089260,art,NA,128669,9,D,4,unknown,7,/Users/dan/Projects/callab/tunkel/Negation2.0/Experiment2/contrastB/production-results/34R0BODSP1O7O92THOYZE59PJE85ED-30OG32W0SV0E0I6TBQZNW642O5VNEM.json,3,standard,FALSE
3138.0049999570500,tree,NA,132676,10,4,J,known,7,/Users/dan/Projects/callab/tunkel/Negation2.0/Experiment2/contrastB/production-results/34R0BODSP1O7O92THOYZE59PJE85ED-30OG32W0SV0E0I6TBQZNW642O5VNEM.json,1,switch,FALSE
3525.599999935370,flower,NA,138311,11,8,L,known,7,/Users/dan/Projects/callab/tunkel/Negation2.0/Experiment2/contrastB/production-results/34R0BODSP1O7O92THOYZE59PJE85ED-30OG32W0SV0E0I6TBQZNW642O5VNEM.json,1,standard,FALSE
3042.295000050220,at,NA,143477,12,A,10,unknown,7,/Users/dan/Projects/callab/tunkel/Negation2.0/Experiment2/contrastB/production-results/34R0BODSP1O7O92THOYZE59PJE85ED-30OG32W0SV0E0I6TBQZNW642O5VNEM.json,1,standard,FALSE
4905.70999996271,bricks,NA,149990,13,I,15,unknown,7,/Users/dan/Projects/callab/tunkel/Negation2.0/Experiment2/contrastB/production-results/34R0BODSP1O7O92THOYZE59PJE85ED-30OG32W0SV0E0I6TBQZNW642O5VNEM.json,1,standard,FALSE
2812.6449999399500,fork,NA,154415,14,6,G,known,7,/Users/dan/Projects/callab/tunkel/Negation2.0/Experiment2/contrastB/production-results/34R0BODSP1O7O92THOYZE59PJE85ED-30OG32W0SV0E0I6TBQZNW642O5VNEM.json,1,standard,FALSE
3760.6249999953400,scorpion,NA,160805,15,5,N,known,7,/Users/dan/Projects/callab/tunkel/Negation2.0/Experiment2/contrastB/production-results/34R0BODSP1O7O92THOYZE59PJE85ED-30OG32W0SV0E0I6TBQZNW642O5VNEM.json,1,standard,FALSE
4350.595000083560,scorpion,NA,168264,16,2,N,known,7,/Users/dan/Projects/callab/tunkel/Negation2.0/Experiment2/contrastB/production-results/34R0BODSP1O7O92THOYZE59PJE85ED-30OG32W0SV0E0I6TBQZNW642O5VNEM.json,2,standard,FALSE
3974.44500005804,scorpion,NA,174864,17,11,N,known,7,/Users/dan/Projects/callab/tunkel/Negation2.0/Experiment2/contrastB/production-results/34R0BODSP1O7O92THOYZE59PJE85ED-30OG32W0SV0E0I6TBQZNW642O5VNEM.json,3,standard,FALSE
2974.7600000118800,art,NA,179455,18,N,1,unknown,7,/Users/dan/Projects/callab/tunkel/Negation2.0/Experiment2/contrastB/production-results/34R0BODSP1O7O92THOYZE59PJE85ED-30OG32W0SV0E0I6TBQZNW642O5VNEM.json,1,switch,FALSE
2402.6299999968600,cat,NA,88946,3,11,B,known,8,/Users/dan/Projects/callab/tunkel/Negation2.0/Experiment2/contrastA/production-results/3JUDR1D0D6G4MF9B8WR1AFVRI74Q28-388U7OUMF8Q0OQJRWQHPK178V1AR0S.json,1,standard,FALSE
4335.765000010720,two,NA,94645,4,D,1,unknown,8,/Users/dan/Projects/callab/tunkel/Negation2.0/Experiment2/contrastA/production-results/3JUDR1D0D6G4MF9B8WR1AFVRI74Q28-388U7OUMF8Q0OQJRWQHPK178V1AR0S.json,1,standard,FALSE
4963.944999995870,cymbals,NA,100970,5,F,12,unknown,8,/Users/dan/Projects/callab/tunkel/Negation2.0/Experiment2/contrastA/production-results/3JUDR1D0D6G4MF9B8WR1AFVRI74Q28-388U7OUMF8Q0OQJRWQHPK178V1AR0S.json,1,standard,FALSE
2615.6099999934700,flower,NA,104698,6,2,L,known,8,/Users/dan/Projects/callab/tunkel/Negation2.0/Experiment2/contrastA/production-results/3JUDR1D0D6G4MF9B8WR1AFVRI74Q28-388U7OUMF8Q0OQJRWQHPK178V1AR0S.json,1,standard,FALSE
2128.4149999992200,tree,NA,107688,7,8,J,known,8,/Users/dan/Projects/callab/tunkel/Negation2.0/Experiment2/contrastA/production-results/3JUDR1D0D6G4MF9B8WR1AFVRI74Q28-388U7OUMF8Q0OQJRWQHPK178V1AR0S.json,1,standard,FALSE
2332.8849999961700,tree,NA,112634,8,15,J,known,8,/Users/dan/Projects/callab/tunkel/Negation2.0/Experiment2/contrastA/production-results/3JUDR1D0D6G4MF9B8WR1AFVRI74Q28-388U7OUMF8Q0OQJRWQHPK178V1AR0S.json,2,standard,FALSE
2732.124999994990,tree,NA,116476,9,3,J,known,8,/Users/dan/Projects/callab/tunkel/Negation2.0/Experiment2/contrastA/production-results/3JUDR1D0D6G4MF9B8WR1AFVRI74Q28-388U7OUMF8Q0OQJRWQHPK178V1AR0S.json,3,standard,FALSE
5782.03499999654,dumbell,NA,124869,10,J,5,unknown,8,/Users/dan/Projects/callab/tunkel/Negation2.0/Experiment2/contrastA/production-results/3JUDR1D0D6G4MF9B8WR1AFVRI74Q28-388U7OUMF8Q0OQJRWQHPK178V1AR0S.json,1,switch,FALSE
5308.890000000250,left,NA,131791,11,M,6,unknown,8,/Users/dan/Projects/callab/tunkel/Negation2.0/Experiment2/contrastA/production-results/3JUDR1D0D6G4MF9B8WR1AFVRI74Q28-388U7OUMF8Q0OQJRWQHPK178V1AR0S.json,1,standard,FALSE
2149.7099999978700,chair,NA,134802,12,16,E,known,8,/Users/dan/Projects/callab/tunkel/Negation2.0/Experiment2/contrastA/production-results/3JUDR1D0D6G4MF9B8WR1AFVRI74Q28-388U7OUMF8Q0OQJRWQHPK178V1AR0S.json,1,standard,FALSE
6951.860000001030,donut,NA,143115,13,A,4,unknown,8,/Users/dan/Projects/callab/tunkel/Negation2.0/Experiment2/contrastA/production-results/3JUDR1D0D6G4MF9B8WR1AFVRI74Q28-388U7OUMF8Q0OQJRWQHPK178V1AR0S.json,1,standard,FALSE
2306.2649999919800,dice,NA,148536,14,9,H,known,8,/Users/dan/Projects/callab/tunkel/Negation2.0/Experiment2/contrastA/production-results/3JUDR1D0D6G4MF9B8WR1AFVRI74Q28-388U7OUMF8Q0OQJRWQHPK178V1AR0S.json,1,standard,FALSE
4515.755000000350,right,NA,155663,15,C,10,unknown,8,/Users/dan/Projects/callab/tunkel/Negation2.0/Experiment2/contrastA/production-results/3JUDR1D0D6G4MF9B8WR1AFVRI74Q28-388U7OUMF8Q0OQJRWQHPK178V1AR0S.json,1,standard,FALSE
2203.5499999910800,right,NA,159978,16,N,10,unknown,8,/Users/dan/Projects/callab/tunkel/Negation2.0/Experiment2/contrastA/production-results/3JUDR1D0D6G4MF9B8WR1AFVRI74Q28-388U7OUMF8Q0OQJRWQHPK178V1AR0S.json,2,standard,FALSE
2118.965000001480,left,NA,163959,17,K,10,unknown,8,/Users/dan/Projects/callab/tunkel/Negation2.0/Experiment2/contrastA/production-results/3JUDR1D0D6G4MF9B8WR1AFVRI74Q28-388U7OUMF8Q0OQJRWQHPK178V1AR0S.json,3,standard,FALSE
2216.450000007170,fork,NA,168292,18,10,G,known,8,/Users/dan/Projects/callab/tunkel/Negation2.0/Experiment2/contrastA/production-results/3JUDR1D0D6G4MF9B8WR1AFVRI74Q28-388U7OUMF8Q0OQJRWQHPK178V1AR0S.json,1,switch,FALSE
7801.880000042730,not car,NA,138587,3,I,7,unknown,9,/Users/dan/Projects/callab/tunkel/Negation2.0/Experiment2/contrastB/production-results/34R0BODSP1O7O92THOYZE59PJE85ED-3PM8NZGV8Z589FA2MNHWOPKE9MTXQS.json,1,standard,TRUE
2849.2350000306000,cat,NA,143040,4,6,B,known,9,/Users/dan/Projects/callab/tunkel/Negation2.0/Experiment2/contrastB/production-results/34R0BODSP1O7O92THOYZE59PJE85ED-3PM8NZGV8Z589FA2MNHWOPKE9MTXQS.json,1,standard,FALSE
8676.500000001400,not pen,NA,153320,5,D,16,unknown,9,/Users/dan/Projects/callab/tunkel/Negation2.0/Experiment2/contrastB/production-results/34R0BODSP1O7O92THOYZE59PJE85ED-3PM8NZGV8Z589FA2MNHWOPKE9MTXQS.json,1,standard,TRUE
5165.314999991100,butterfly,NA,160588,6,8,K,known,9,/Users/dan/Projects/callab/tunkel/Negation2.0/Experiment2/contrastB/production-results/34R0BODSP1O7O92THOYZE59PJE85ED-3PM8NZGV8Z589FA2MNHWOPKE9MTXQS.json,1,standard,FALSE
6245.439999969680,dog toy,NA,169437,7,L,1,unknown,9,/Users/dan/Projects/callab/tunkel/Negation2.0/Experiment2/contrastB/production-results/34R0BODSP1O7O92THOYZE59PJE85ED-3PM8NZGV8Z589FA2MNHWOPKE9MTXQS.json,1,standard,FALSE
9213.8949999935,not shoe,NA,180505,8,C,1,unknown,9,/Users/dan/Projects/callab/tunkel/Negation2.0/Experiment2/contrastB/production-results/34R0BODSP1O7O92THOYZE59PJE85ED-3PM8NZGV8Z589FA2MNHWOPKE9MTXQS.json,2,standard,TRUE
4241.150000016210,not chair,NA,186599,9,E,1,unknown,9,/Users/dan/Projects/callab/tunkel/Negation2.0/Experiment2/contrastB/production-results/34R0BODSP1O7O92THOYZE59PJE85ED-3PM8NZGV8Z589FA2MNHWOPKE9MTXQS.json,3,standard,TRUE
2963.9850000385200,cup,NA,192666,10,1,M,known,9,/Users/dan/Projects/callab/tunkel/Negation2.0/Experiment2/contrastB/production-results/34R0BODSP1O7O92THOYZE59PJE85ED-3PM8NZGV8Z589FA2MNHWOPKE9MTXQS.json,1,switch,FALSE
3081.2999999616300,crab,NA,198350,11,12,N,known,9,/Users/dan/Projects/callab/tunkel/Negation2.0/Experiment2/contrastB/production-results/34R0BODSP1O7O92THOYZE59PJE85ED-3PM8NZGV8Z589FA2MNHWOPKE9MTXQS.json,1,standard,FALSE
5057.98500002129,not dice,NA,206512,12,H,2,unknown,9,/Users/dan/Projects/callab/tunkel/Negation2.0/Experiment2/contrastB/production-results/34R0BODSP1O7O92THOYZE59PJE85ED-3PM8NZGV8Z589FA2MNHWOPKE9MTXQS.json,1,standard,TRUE
4607.530000037510,not apple,NA,214223,13,A,3,unknown,9,/Users/dan/Projects/callab/tunkel/Negation2.0/Experiment2/contrastB/production-results/34R0BODSP1O7O92THOYZE59PJE85ED-3PM8NZGV8Z589FA2MNHWOPKE9MTXQS.json,1,standard,TRUE
3232.8700000071000,fork,NA,219310,14,11,G,known,9,/Users/dan/Projects/callab/tunkel/Negation2.0/Experiment2/contrastB/production-results/34R0BODSP1O7O92THOYZE59PJE85ED-3PM8NZGV8Z589FA2MNHWOPKE9MTXQS.json,1,standard,FALSE
2111.225000000560,tree,NA,224525,15,5,J,known,9,/Users/dan/Projects/callab/tunkel/Negation2.0/Experiment2/contrastB/production-results/34R0BODSP1O7O92THOYZE59PJE85ED-3PM8NZGV8Z589FA2MNHWOPKE9MTXQS.json,1,standard,FALSE
2287.190000002740,tree,NA,228665,16,4,J,known,9,/Users/dan/Projects/callab/tunkel/Negation2.0/Experiment2/contrastB/production-results/34R0BODSP1O7O92THOYZE59PJE85ED-3PM8NZGV8Z589FA2MNHWOPKE9MTXQS.json,2,standard,FALSE
2306.2599999830100,tree,NA,234076,17,15,J,known,9,/Users/dan/Projects/callab/tunkel/Negation2.0/Experiment2/contrastB/production-results/34R0BODSP1O7O92THOYZE59PJE85ED-3PM8NZGV8Z589FA2MNHWOPKE9MTXQS.json,3,standard,FALSE
4853.450000053270,not tree,NA,239784,18,J,9,unknown,9,/Users/dan/Projects/callab/tunkel/Negation2.0/Experiment2/contrastB/production-results/34R0BODSP1O7O92THOYZE59PJE85ED-3PM8NZGV8Z589FA2MNHWOPKE9MTXQS.json,1,switch,TRUE
2941.2949999969000,cup,NA,107736,3,2,M,known,10,/Users/dan/Projects/callab/tunkel/Negation2.0/Experiment2/contrastA/production-results/338GLSUI43000P00OVVDPY4H9ZUSFJ-3U84XHCDID2QP5NJP8Y4I7ZKLU9Z49.json,1,standard,FALSE
4762.4549999891300,art,NA,114353,4,E,4,unknown,10,/Users/dan/Projects/callab/tunkel/Negation2.0/Experiment2/contrastA/production-results/338GLSUI43000P00OVVDPY4H9ZUSFJ-3U84XHCDID2QP5NJP8Y4I7ZKLU9Z49.json,1,standard,FALSE
3366.405000007940,toy,NA,118824,5,F,1,unknown,10,/Users/dan/Projects/callab/tunkel/Negation2.0/Experiment2/contrastA/production-results/338GLSUI43000P00OVVDPY4H9ZUSFJ-3U84XHCDID2QP5NJP8Y4I7ZKLU9Z49.json,1,standard,FALSE
2604.1649999970100,apple,NA,122531,6,16,A,known,10,/Users/dan/Projects/callab/tunkel/Negation2.0/Experiment2/contrastA/production-results/338GLSUI43000P00OVVDPY4H9ZUSFJ-3U84XHCDID2QP5NJP8Y4I7ZKLU9Z49.json,1,standard,FALSE
3485.2150000224400,dice,NA,127370,7,8,H,known,10,/Users/dan/Projects/callab/tunkel/Negation2.0/Experiment2/contrastA/production-results/338GLSUI43000P00OVVDPY4H9ZUSFJ-3U84XHCDID2QP5NJP8Y4I7ZKLU9Z49.json,1,standard,FALSE
2113.409999990840,dice,NA,130839,8,15,H,known,10,/Users/dan/Projects/callab/tunkel/Negation2.0/Experiment2/contrastA/production-results/338GLSUI43000P00OVVDPY4H9ZUSFJ-3U84XHCDID2QP5NJP8Y4I7ZKLU9Z49.json,2,standard,FALSE
2778.825000015790,dice,NA,136722,9,9,H,known,10,/Users/dan/Projects/callab/tunkel/Negation2.0/Experiment2/contrastA/production-results/338GLSUI43000P00OVVDPY4H9ZUSFJ-3U84XHCDID2QP5NJP8Y4I7ZKLU9Z49.json,3,standard,FALSE
5715.540000004690,toy,NA,143793,10,H,6,unknown,10,/Users/dan/Projects/callab/tunkel/Negation2.0/Experiment2/contrastA/production-results/338GLSUI43000P00OVVDPY4H9ZUSFJ-3U84XHCDID2QP5NJP8Y4I7ZKLU9Z49.json,1,switch,FALSE
2689.1450000111900,toy,NA,148336,11,C,5,unknown,10,/Users/dan/Projects/callab/tunkel/Negation2.0/Experiment2/contrastA/production-results/338GLSUI43000P00OVVDPY4H9ZUSFJ-3U84XHCDID2QP5NJP8Y4I7ZKLU9Z49.json,1,standard,FALSE
2302.400000015040,fork,NA,152243,12,11,G,known,10,/Users/dan/Projects/callab/tunkel/Negation2.0/Experiment2/contrastA/production-results/338GLSUI43000P00OVVDPY4H9ZUSFJ-3U84XHCDID2QP5NJP8Y4I7ZKLU9Z49.json,1,standard,FALSE
3940.644999995130,art,NA,158038,13,L,3,unknown,10,/Users/dan/Projects/callab/tunkel/Negation2.0/Experiment2/contrastA/production-results/338GLSUI43000P00OVVDPY4H9ZUSFJ-3U84XHCDID2QP5NJP8Y4I7ZKLU9Z49.json,1,standard,FALSE
2880.380000016890,pen,NA,161773,14,10,D,known,10,/Users/dan/Projects/callab/tunkel/Negation2.0/Experiment2/contrastA/production-results/338GLSUI43000P00OVVDPY4H9ZUSFJ-3U84XHCDID2QP5NJP8Y4I7ZKLU9Z49.json,1,standard,FALSE
5334.345000010220,art,NA,169711,15,K,7,unknown,10,/Users/dan/Projects/callab/tunkel/Negation2.0/Experiment2/contrastA/production-results/338GLSUI43000P00OVVDPY4H9ZUSFJ-3U84XHCDID2QP5NJP8Y4I7ZKLU9Z49.json,1,standard,FALSE
3399.839999998220,art,NA,174965,16,B,7,unknown,10,/Users/dan/Projects/callab/tunkel/Negation2.0/Experiment2/contrastA/production-results/338GLSUI43000P00OVVDPY4H9ZUSFJ-3U84XHCDID2QP5NJP8Y4I7ZKLU9Z49.json,2,standard,FALSE
3416.1800000001700,art,NA,180486,17,J,7,unknown,10,/Users/dan/Projects/callab/tunkel/Negation2.0/Experiment2/contrastA/production-results/338GLSUI43000P00OVVDPY4H9ZUSFJ-3U84XHCDID2QP5NJP8Y4I7ZKLU9Z49.json,3,standard,FALSE
3375.7599999953500,crab,NA,186968,18,7,N,known,10,/Users/dan/Projects/callab/tunkel/Negation2.0/Experiment2/contrastA/production-results/338GLSUI43000P00OVVDPY4H9ZUSFJ-3U84XHCDID2QP5NJP8Y4I7ZKLU9Z49.json,1,switch,FALSE
8430.259999993720,drink,NA,125837,3,16,M,known,11,/Users/dan/Projects/callab/tunkel/Negation2.0/Experiment2/contrastA/production-results/3BPP3MA3TC9LQY5E9BE6VU5M547LEG-3TE3O85731X7K0M5BDL33P0NSZUR2C.json,1,standard,FALSE
8366.880000015950,art,NA,136812,4,A,8,unknown,11,/Users/dan/Projects/callab/tunkel/Negation2.0/Experiment2/contrastA/production-results/3BPP3MA3TC9LQY5E9BE6VU5M547LEG-3TE3O85731X7K0M5BDL33P0NSZUR2C.json,1,standard,FALSE
8684.919999999690,art,NA,148604,5,J,4,unknown,11,/Users/dan/Projects/callab/tunkel/Negation2.0/Experiment2/contrastA/production-results/3BPP3MA3TC9LQY5E9BE6VU5M547LEG-3TE3O85731X7K0M5BDL33P0NSZUR2C.json,1,standard,FALSE
4895.695000013800,meow,NA,155108,6,9,B,known,11,/Users/dan/Projects/callab/tunkel/Negation2.0/Experiment2/contrastA/production-results/3BPP3MA3TC9LQY5E9BE6VU5M547LEG-3TE3O85731X7K0M5BDL33P0NSZUR2C.json,1,standard,FALSE
6627.399999997580,spring,NA,163092,7,5,L,known,11,/Users/dan/Projects/callab/tunkel/Negation2.0/Experiment2/contrastA/production-results/3BPP3MA3TC9LQY5E9BE6VU5M547LEG-3TE3O85731X7K0M5BDL33P0NSZUR2C.json,1,standard,FALSE
8467.055000015530,spring,NA,172916,8,15,L,known,11,/Users/dan/Projects/callab/tunkel/Negation2.0/Experiment2/contrastA/production-results/3BPP3MA3TC9LQY5E9BE6VU5M547LEG-3TE3O85731X7K0M5BDL33P0NSZUR2C.json,2,standard,FALSE
5249.019999988380,spring,NA,180020,9,1,L,known,11,/Users/dan/Projects/callab/tunkel/Negation2.0/Experiment2/contrastA/production-results/3BPP3MA3TC9LQY5E9BE6VU5M547LEG-3TE3O85731X7K0M5BDL33P0NSZUR2C.json,3,standard,FALSE
6460.305000015070,ear,NA,187589,10,L,10,unknown,11,/Users/dan/Projects/callab/tunkel/Negation2.0/Experiment2/contrastA/production-results/3BPP3MA3TC9LQY5E9BE6VU5M547LEG-3TE3O85731X7K0M5BDL33P0NSZUR2C.json,1,switch,FALSE
7388.664999976750,art,NA,196084,11,D,11,unknown,11,/Users/dan/Projects/callab/tunkel/Negation2.0/Experiment2/contrastA/production-results/3BPP3MA3TC9LQY5E9BE6VU5M547LEG-3TE3O85731X7K0M5BDL33P0NSZUR2C.json,1,standard,FALSE
6555.505000025730,sea,NA,203749,12,6,N,known,11,/Users/dan/Projects/callab/tunkel/Negation2.0/Experiment2/contrastA/production-results/3BPP3MA3TC9LQY5E9BE6VU5M547LEG-3TE3O85731X7K0M5BDL33P0NSZUR2C.json,1,standard,FALSE
13925.474999996400,spining,NA,220780,13,H,12,unknown,11,/Users/dan/Projects/callab/tunkel/Negation2.0/Experiment2/contrastA/production-results/3BPP3MA3TC9LQY5E9BE6VU5M547LEG-3TE3O85731X7K0M5BDL33P0NSZUR2C.json,1,standard,FALSE
4695.059999998190,sit,NA,226332,14,2,E,known,11,/Users/dan/Projects/callab/tunkel/Negation2.0/Experiment2/contrastA/production-results/3BPP3MA3TC9LQY5E9BE6VU5M547LEG-3TE3O85731X7K0M5BDL33P0NSZUR2C.json,1,standard,FALSE
13524.065000005100,art,NA,241964,15,I,7,unknown,11,/Users/dan/Projects/callab/tunkel/Negation2.0/Experiment2/contrastA/production-results/3BPP3MA3TC9LQY5E9BE6VU5M547LEG-3TE3O85731X7K0M5BDL33P0NSZUR2C.json,1,standard,FALSE
4255.85499999579,art,NA,247076,16,G,7,unknown,11,/Users/dan/Projects/callab/tunkel/Negation2.0/Experiment2/contrastA/production-results/3BPP3MA3TC9LQY5E9BE6VU5M547LEG-3TE3O85731X7K0M5BDL33P0NSZUR2C.json,2,standard,FALSE
3416.5199999988500,art,NA,253100,17,F,7,unknown,11,/Users/dan/Projects/callab/tunkel/Negation2.0/Experiment2/contrastA/production-results/3BPP3MA3TC9LQY5E9BE6VU5M547LEG-3TE3O85731X7K0M5BDL33P0NSZUR2C.json,3,standard,FALSE
5699.649999995020,walk,NA,260156,18,7,C,known,11,/Users/dan/Projects/callab/tunkel/Negation2.0/Experiment2/contrastA/production-results/3BPP3MA3TC9LQY5E9BE6VU5M547LEG-3TE3O85731X7K0M5BDL33P0NSZUR2C.json,1,switch,FALSE
2862.8850000095600,cat,NA,81377,3,4,B,known,12,/Users/dan/Projects/callab/tunkel/Negation2.0/Experiment2/contrastA/production-results/3JUDR1D0D6G4MF9B8WR1AFVRI74Q28-3TVSS0C0E2P6CVX4TMF5RBHUKRMTW9.json,1,standard,FALSE
2825.714999984480,art,NA,86059,4,J,8,unknown,12,/Users/dan/Projects/callab/tunkel/Negation2.0/Experiment2/contrastA/production-results/3JUDR1D0D6G4MF9B8WR1AFVRI74Q28-3TVSS0C0E2P6CVX4TMF5RBHUKRMTW9.json,1,standard,FALSE
9158.830000029410,piece,NA,97073,5,G,3,unknown,12,/Users/dan/Projects/callab/tunkel/Negation2.0/Experiment2/contrastA/production-results/3JUDR1D0D6G4MF9B8WR1AFVRI74Q28-3TVSS0C0E2P6CVX4TMF5RBHUKRMTW9.json,1,standard,FALSE
2882.67999998061,flower,NA,102062,6,7,L,known,12,/Users/dan/Projects/callab/tunkel/Negation2.0/Experiment2/contrastA/production-results/3JUDR1D0D6G4MF9B8WR1AFVRI74Q28-3TVSS0C0E2P6CVX4TMF5RBHUKRMTW9.json,1,standard,FALSE
3988.4799999999800,furniture,NA,107404,7,12,E,known,12,/Users/dan/Projects/callab/tunkel/Negation2.0/Experiment2/contrastA/production-results/3JUDR1D0D6G4MF9B8WR1AFVRI74Q28-3TVSS0C0E2P6CVX4TMF5RBHUKRMTW9.json,1,standard,FALSE
2414.6400000318000,chair,NA,112425,8,2,E,known,12,/Users/dan/Projects/callab/tunkel/Negation2.0/Experiment2/contrastA/production-results/3JUDR1D0D6G4MF9B8WR1AFVRI74Q28-3TVSS0C0E2P6CVX4TMF5RBHUKRMTW9.json,2,standard,FALSE
1823.4349999693200,chair,NA,115354,9,16,E,known,12,/Users/dan/Projects/callab/tunkel/Negation2.0/Experiment2/contrastA/production-results/3JUDR1D0D6G4MF9B8WR1AFVRI74Q28-3TVSS0C0E2P6CVX4TMF5RBHUKRMTW9.json,3,standard,FALSE
2867.4600000376800,art,NA,121330,10,E,5,unknown,12,/Users/dan/Projects/callab/tunkel/Negation2.0/Experiment2/contrastA/production-results/3JUDR1D0D6G4MF9B8WR1AFVRI74Q28-3TVSS0C0E2P6CVX4TMF5RBHUKRMTW9.json,1,switch,FALSE
2635.0999999558600,art,NA,127070,11,N,11,unknown,12,/Users/dan/Projects/callab/tunkel/Negation2.0/Experiment2/contrastA/production-results/3JUDR1D0D6G4MF9B8WR1AFVRI74Q28-3TVSS0C0E2P6CVX4TMF5RBHUKRMTW9.json,1,standard,FALSE
2235.0200000219000,dice,NA,130161,12,9,H,known,12,/Users/dan/Projects/callab/tunkel/Negation2.0/Experiment2/contrastA/production-results/3JUDR1D0D6G4MF9B8WR1AFVRI74Q28-3TVSS0C0E2P6CVX4TMF5RBHUKRMTW9.json,1,standard,FALSE
6651.270000031220,utensil,NA,139918,13,C,10,unknown,12,/Users/dan/Projects/callab/tunkel/Negation2.0/Experiment2/contrastA/production-results/3JUDR1D0D6G4MF9B8WR1AFVRI74Q28-3TVSS0C0E2P6CVX4TMF5RBHUKRMTW9.json,1,standard,FALSE
2787.0299999485700,apple,NA,145310,14,1,A,known,12,/Users/dan/Projects/callab/tunkel/Negation2.0/Experiment2/contrastA/production-results/3JUDR1D0D6G4MF9B8WR1AFVRI74Q28-3TVSS0C0E2P6CVX4TMF5RBHUKRMTW9.json,1,standard,FALSE
7749.269999971150,puzzle,NA,156165,15,I,15,unknown,12,/Users/dan/Projects/callab/tunkel/Negation2.0/Experiment2/contrastA/production-results/3JUDR1D0D6G4MF9B8WR1AFVRI74Q28-3TVSS0C0E2P6CVX4TMF5RBHUKRMTW9.json,1,standard,FALSE
2766.8999999878000,puzzle,NA,160037,16,F,15,unknown,12,/Users/dan/Projects/callab/tunkel/Negation2.0/Experiment2/contrastA/production-results/3JUDR1D0D6G4MF9B8WR1AFVRI74Q28-3TVSS0C0E2P6CVX4TMF5RBHUKRMTW9.json,2,standard,FALSE
2276.6300000366800,puzzle,NA,165421,17,M,15,unknown,12,/Users/dan/Projects/callab/tunkel/Negation2.0/Experiment2/contrastA/production-results/3JUDR1D0D6G4MF9B8WR1AFVRI74Q28-3TVSS0C0E2P6CVX4TMF5RBHUKRMTW9.json,3,standard,FALSE
2689.505000016650,pen,NA,170216,18,15,D,known,12,/Users/dan/Projects/callab/tunkel/Negation2.0/Experiment2/contrastA/production-results/3JUDR1D0D6G4MF9B8WR1AFVRI74Q28-3TVSS0C0E2P6CVX4TMF5RBHUKRMTW9.json,1,switch,FALSE
4617.210000054910,ring,NA,207756,3,16,F,known,13,/Users/dan/Projects/callab/tunkel/Negation2.0/Experiment2/contrastA/production-results/338GLSUI43000P00OVVDPY4H9ZUSFJ-3WR9XG3T64075VHD6D6LRN6LB1W74P.json,1,standard,FALSE
17746.82500003840,plunger,NA,226378,4,K,10,unknown,13,/Users/dan/Projects/callab/tunkel/Negation2.0/Experiment2/contrastA/production-results/338GLSUI43000P00OVVDPY4H9ZUSFJ-3WR9XG3T64075VHD6D6LRN6LB1W74P.json,1,standard,FALSE
8272.579999873420,toy,NA,236514,5,M,7,unknown,13,/Users/dan/Projects/callab/tunkel/Negation2.0/Experiment2/contrastA/production-results/338GLSUI43000P00OVVDPY4H9ZUSFJ-3WR9XG3T64075VHD6D6LRN6LB1W74P.json,1,standard,FALSE
5840.014999965210,tree,NA,243474,6,15,J,known,13,/Users/dan/Projects/callab/tunkel/Negation2.0/Experiment2/contrastA/production-results/338GLSUI43000P00OVVDPY4H9ZUSFJ-3WR9XG3T64075VHD6D6LRN6LB1W74P.json,1,standard,FALSE
5122.29000008665,shoe,NA,250205,7,3,C,known,13,/Users/dan/Projects/callab/tunkel/Negation2.0/Experiment2/contrastA/production-results/338GLSUI43000P00OVVDPY4H9ZUSFJ-3WR9XG3T64075VHD6D6LRN6LB1W74P.json,1,standard,FALSE
5423.8599999807800,shoe,NA,256786,8,4,C,known,13,/Users/dan/Projects/callab/tunkel/Negation2.0/Experiment2/contrastA/production-results/338GLSUI43000P00OVVDPY4H9ZUSFJ-3WR9XG3T64075VHD6D6LRN6LB1W74P.json,2,standard,FALSE
6013.74000008218,shoe,NA,264167,9,12,C,known,13,/Users/dan/Projects/callab/tunkel/Negation2.0/Experiment2/contrastA/production-results/338GLSUI43000P00OVVDPY4H9ZUSFJ-3WR9XG3T64075VHD6D6LRN6LB1W74P.json,3,standard,FALSE
5241.124999942260,toy,NA,272101,10,C,1,unknown,13,/Users/dan/Projects/callab/tunkel/Negation2.0/Experiment2/contrastA/production-results/338GLSUI43000P00OVVDPY4H9ZUSFJ-3WR9XG3T64075VHD6D6LRN6LB1W74P.json,1,switch,FALSE
8258.239999879150,toy,NA,281491,11,A,9,unknown,13,/Users/dan/Projects/callab/tunkel/Negation2.0/Experiment2/contrastA/production-results/338GLSUI43000P00OVVDPY4H9ZUSFJ-3WR9XG3T64075VHD6D6LRN6LB1W74P.json,1,standard,FALSE
8256.039999891070,flower,NA,290864,12,6,L,known,13,/Users/dan/Projects/callab/tunkel/Negation2.0/Experiment2/contrastA/production-results/338GLSUI43000P00OVVDPY4H9ZUSFJ-3WR9XG3T64075VHD6D6LRN6LB1W74P.json,1,standard,FALSE
7862.715000053870,toy,NA,300126,13,H,5,unknown,13,/Users/dan/Projects/callab/tunkel/Negation2.0/Experiment2/contrastA/production-results/338GLSUI43000P00OVVDPY4H9ZUSFJ-3WR9XG3T64075VHD6D6LRN6LB1W74P.json,1,standard,FALSE
5366.445000050590,cat,NA,308610,14,11,B,known,13,/Users/dan/Projects/callab/tunkel/Negation2.0/Experiment2/contrastA/production-results/338GLSUI43000P00OVVDPY4H9ZUSFJ-3WR9XG3T64075VHD6D6LRN6LB1W74P.json,1,standard,FALSE
8349.97499990277,toy,NA,317937,15,N,8,unknown,13,/Users/dan/Projects/callab/tunkel/Negation2.0/Experiment2/contrastA/production-results/338GLSUI43000P00OVVDPY4H9ZUSFJ-3WR9XG3T64075VHD6D6LRN6LB1W74P.json,1,standard,FALSE
5447.265000082550,toy,NA,326500,16,D,8,unknown,13,/Users/dan/Projects/callab/tunkel/Negation2.0/Experiment2/contrastA/production-results/338GLSUI43000P00OVVDPY4H9ZUSFJ-3WR9XG3T64075VHD6D6LRN6LB1W74P.json,2,standard,FALSE
4692.62499990873,toy,NA,332858,17,G,8,unknown,13,/Users/dan/Projects/callab/tunkel/Negation2.0/Experiment2/contrastA/production-results/338GLSUI43000P00OVVDPY4H9ZUSFJ-3WR9XG3T64075VHD6D6LRN6LB1W74P.json,3,standard,FALSE
3536.1699999775700,car,NA,338024,18,8,I,known,13,/Users/dan/Projects/callab/tunkel/Negation2.0/Experiment2/contrastA/production-results/338GLSUI43000P00OVVDPY4H9ZUSFJ-3WR9XG3T64075VHD6D6LRN6LB1W74P.json,1,switch,FALSE
9127.159999996370,flower toy,NA,133698,3,I,8,unknown,14,/Users/dan/Projects/callab/tunkel/Negation2.0/Experiment2/contrastB/production-results/3ZLW647WALKCFE39ALF5X72G8FR32J-3QECW5O0KIQCZCIKXLSW1B4H0UJ5T5.json,1,standard,FALSE
4205.630000004020,butterfly,NA,139758,4,6,K,known,14,/Users/dan/Projects/callab/tunkel/Negation2.0/Experiment2/contrastB/production-results/3ZLW647WALKCFE39ALF5X72G8FR32J-3QECW5O0KIQCZCIKXLSW1B4H0UJ5T5.json,1,standard,FALSE
4108.28500000207,sandal,NA,145222,5,G,7,unknown,14,/Users/dan/Projects/callab/tunkel/Negation2.0/Experiment2/contrastB/production-results/3ZLW647WALKCFE39ALF5X72G8FR32J-3QECW5O0KIQCZCIKXLSW1B4H0UJ5T5.json,1,standard,FALSE
3235.255000006870,pen,NA,149813,6,5,D,known,14,/Users/dan/Projects/callab/tunkel/Negation2.0/Experiment2/contrastB/production-results/3ZLW647WALKCFE39ALF5X72G8FR32J-3QECW5O0KIQCZCIKXLSW1B4H0UJ5T5.json,1,standard,FALSE
7199.780000002650,black toy thing,NA,160116,7,B,11,unknown,14,/Users/dan/Projects/callab/tunkel/Negation2.0/Experiment2/contrastB/production-results/3ZLW647WALKCFE39ALF5X72G8FR32J-3QECW5O0KIQCZCIKXLSW1B4H0UJ5T5.json,1,standard,FALSE
3833.699999995590,black toy thing,NA,167055,8,N,11,unknown,14,/Users/dan/Projects/callab/tunkel/Negation2.0/Experiment2/contrastB/production-results/3ZLW647WALKCFE39ALF5X72G8FR32J-3QECW5O0KIQCZCIKXLSW1B4H0UJ5T5.json,2,standard,FALSE
3783.0049999975000,black toy thing,NA,172694,9,E,11,unknown,14,/Users/dan/Projects/callab/tunkel/Negation2.0/Experiment2/contrastB/production-results/3ZLW647WALKCFE39ALF5X72G8FR32J-3QECW5O0KIQCZCIKXLSW1B4H0UJ5T5.json,3,standard,FALSE
3201.984999999700,ring,NA,178003,10,11,F,known,14,/Users/dan/Projects/callab/tunkel/Negation2.0/Experiment2/contrastB/production-results/3ZLW647WALKCFE39ALF5X72G8FR32J-3QECW5O0KIQCZCIKXLSW1B4H0UJ5T5.json,1,switch,FALSE
3489.1000000061500,flower,NA,183096,11,10,L,known,14,/Users/dan/Projects/callab/tunkel/Negation2.0/Experiment2/contrastB/production-results/3ZLW647WALKCFE39ALF5X72G8FR32J-3QECW5O0KIQCZCIKXLSW1B4H0UJ5T5.json,1,standard,FALSE
6520.509999994830,drum toy,NA,190472,12,A,12,unknown,14,/Users/dan/Projects/callab/tunkel/Negation2.0/Experiment2/contrastB/production-results/3ZLW647WALKCFE39ALF5X72G8FR32J-3QECW5O0KIQCZCIKXLSW1B4H0UJ5T5.json,1,standard,FALSE
5372.875000000930,blimp toy,NA,197950,13,H,16,unknown,14,/Users/dan/Projects/callab/tunkel/Negation2.0/Experiment2/contrastB/production-results/3ZLW647WALKCFE39ALF5X72G8FR32J-3QECW5O0KIQCZCIKXLSW1B4H0UJ5T5.json,1,standard,FALSE
3148.815000000470,tree,NA,203204,14,4,J,known,14,/Users/dan/Projects/callab/tunkel/Negation2.0/Experiment2/contrastB/production-results/3ZLW647WALKCFE39ALF5X72G8FR32J-3QECW5O0KIQCZCIKXLSW1B4H0UJ5T5.json,1,standard,FALSE
2867.57999999827,cup,NA,207676,15,2,M,known,14,/Users/dan/Projects/callab/tunkel/Negation2.0/Experiment2/contrastB/production-results/3ZLW647WALKCFE39ALF5X72G8FR32J-3QECW5O0KIQCZCIKXLSW1B4H0UJ5T5.json,1,standard,FALSE
2630.844999999680,cup,NA,211412,16,1,M,known,14,/Users/dan/Projects/callab/tunkel/Negation2.0/Experiment2/contrastB/production-results/3ZLW647WALKCFE39ALF5X72G8FR32J-3QECW5O0KIQCZCIKXLSW1B4H0UJ5T5.json,2,standard,FALSE
2508.765000005950,cup,NA,215276,17,9,M,known,14,/Users/dan/Projects/callab/tunkel/Negation2.0/Experiment2/contrastB/production-results/3ZLW647WALKCFE39ALF5X72G8FR32J-3QECW5O0KIQCZCIKXLSW1B4H0UJ5T5.json,3,standard,FALSE
8701.030000003810,grey cube things,NA,225832,18,M,15,unknown,14,/Users/dan/Projects/callab/tunkel/Negation2.0/Experiment2/contrastB/production-results/3ZLW647WALKCFE39ALF5X72G8FR32J-3QECW5O0KIQCZCIKXLSW1B4H0UJ5T5.json,1,switch,FALSE
3470,Flower,NA,145818,3,12,L,known,15,/Users/dan/Projects/callab/tunkel/Negation2.0/Experiment2/contrastA/production-results/338GLSUI43000P00OVVDPY4H9ZUSFJ-392CY0QWG2G4UFY9P4AIICWUPH84II.json,1,standard,FALSE
8523,Not the tree,NA,157443,4,J,6,unknown,15,/Users/dan/Projects/callab/tunkel/Negation2.0/Experiment2/contrastA/production-results/338GLSUI43000P00OVVDPY4H9ZUSFJ-392CY0QWG2G4UFY9P4AIICWUPH84II.json,1,standard,TRUE
4462,Not the car,NA,164508,5,I,3,unknown,15,/Users/dan/Projects/callab/tunkel/Negation2.0/Experiment2/contrastA/production-results/338GLSUI43000P00OVVDPY4H9ZUSFJ-392CY0QWG2G4UFY9P4AIICWUPH84II.json,1,standard,TRUE
3180,Ring,NA,170290,6,11,F,known,15,/Users/dan/Projects/callab/tunkel/Negation2.0/Experiment2/contrastA/production-results/338GLSUI43000P00OVVDPY4H9ZUSFJ-392CY0QWG2G4UFY9P4AIICWUPH84II.json,1,standard,FALSE
7430,Die,NA,179071,7,15,H,known,15,/Users/dan/Projects/callab/tunkel/Negation2.0/Experiment2/contrastA/production-results/338GLSUI43000P00OVVDPY4H9ZUSFJ-392CY0QWG2G4UFY9P4AIICWUPH84II.json,1,standard,FALSE
12139,Die a single from a pair of dice,NA,194314,8,9,H,known,15,/Users/dan/Projects/callab/tunkel/Negation2.0/Experiment2/contrastA/production-results/338GLSUI43000P00OVVDPY4H9ZUSFJ-392CY0QWG2G4UFY9P4AIICWUPH84II.json,2,standard,FALSE
7487,die,NA,203654,9,4,H,known,15,/Users/dan/Projects/callab/tunkel/Negation2.0/Experiment2/contrastA/production-results/338GLSUI43000P00OVVDPY4H9ZUSFJ-392CY0QWG2G4UFY9P4AIICWUPH84II.json,3,standard,FALSE
11456,Barbelllike object,NA,216212,10,H,5,unknown,15,/Users/dan/Projects/callab/tunkel/Negation2.0/Experiment2/contrastA/production-results/338GLSUI43000P00OVVDPY4H9ZUSFJ-392CY0QWG2G4UFY9P4AIICWUPH84II.json,1,switch,FALSE
7400,Pump,NA,224464,11,K,10,unknown,15,/Users/dan/Projects/callab/tunkel/Negation2.0/Experiment2/contrastA/production-results/338GLSUI43000P00OVVDPY4H9ZUSFJ-392CY0QWG2G4UFY9P4AIICWUPH84II.json,1,standard,FALSE
2972,Crab,NA,230038,12,16,N,known,15,/Users/dan/Projects/callab/tunkel/Negation2.0/Experiment2/contrastA/production-results/338GLSUI43000P00OVVDPY4H9ZUSFJ-392CY0QWG2G4UFY9P4AIICWUPH84II.json,1,standard,FALSE
9215,Not the fork,NA,241855,13,G,8,unknown,15,/Users/dan/Projects/callab/tunkel/Negation2.0/Experiment2/contrastA/production-results/338GLSUI43000P00OVVDPY4H9ZUSFJ-392CY0QWG2G4UFY9P4AIICWUPH84II.json,1,standard,TRUE
3212,Mug,NA,246670,14,2,M,known,15,/Users/dan/Projects/callab/tunkel/Negation2.0/Experiment2/contrastA/production-results/338GLSUI43000P00OVVDPY4H9ZUSFJ-392CY0QWG2G4UFY9P4AIICWUPH84II.json,1,standard,FALSE
6781,Spiky dog toy,NA,255304,15,C,1,unknown,15,/Users/dan/Projects/callab/tunkel/Negation2.0/Experiment2/contrastA/production-results/338GLSUI43000P00OVVDPY4H9ZUSFJ-392CY0QWG2G4UFY9P4AIICWUPH84II.json,1,standard,FALSE
7144,Spiky dog toy,NA,263799,16,B,1,unknown,15,/Users/dan/Projects/callab/tunkel/Negation2.0/Experiment2/contrastA/production-results/338GLSUI43000P00OVVDPY4H9ZUSFJ-392CY0QWG2G4UFY9P4AIICWUPH84II.json,2,standard,FALSE
3006,Spiky dog toy,NA,268907,17,D,1,unknown,15,/Users/dan/Projects/callab/tunkel/Negation2.0/Experiment2/contrastA/production-results/338GLSUI43000P00OVVDPY4H9ZUSFJ-392CY0QWG2G4UFY9P4AIICWUPH84II.json,3,standard,FALSE
3792,Apple,NA,274554,18,1,A,known,15,/Users/dan/Projects/callab/tunkel/Negation2.0/Experiment2/contrastA/production-results/338GLSUI43000P00OVVDPY4H9ZUSFJ-392CY0QWG2G4UFY9P4AIICWUPH84II.json,1,switch,FALSE
4963.505000050650,merow,NA,81031,3,2,B,known,16,/Users/dan/Projects/callab/tunkel/Negation2.0/Experiment2/contrastA/production-results/3JUDR1D0D6G4MF9B8WR1AFVRI74Q28-3NGI5ARFTUUFJ2OUFHH0TBQ3ZBSP11.json,1,standard,FALSE
5917.245000018740,hot air,NA,89054,4,D,16,unknown,16,/Users/dan/Projects/callab/tunkel/Negation2.0/Experiment2/contrastA/production-results/3JUDR1D0D6G4MF9B8WR1AFVRI74Q28-3NGI5ARFTUUFJ2OUFHH0TBQ3ZBSP11.json,1,standard,FALSE
7256.374999997210,crown,NA,98167,5,A,3,unknown,16,/Users/dan/Projects/callab/tunkel/Negation2.0/Experiment2/contrastA/production-results/3JUDR1D0D6G4MF9B8WR1AFVRI74Q28-3NGI5ARFTUUFJ2OUFHH0TBQ3ZBSP11.json,1,standard,FALSE
3279.305000032760,dice,NA,104055,6,9,H,known,16,/Users/dan/Projects/callab/tunkel/Negation2.0/Experiment2/contrastA/production-results/3JUDR1D0D6G4MF9B8WR1AFVRI74Q28-3NGI5ARFTUUFJ2OUFHH0TBQ3ZBSP11.json,1,standard,FALSE
2248.699999996460,ring,NA,107160,7,11,F,known,16,/Users/dan/Projects/callab/tunkel/Negation2.0/Experiment2/contrastA/production-results/3JUDR1D0D6G4MF9B8WR1AFVRI74Q28-3NGI5ARFTUUFJ2OUFHH0TBQ3ZBSP11.json,1,standard,FALSE
2398.7750000087500,ring,NA,110415,8,1,F,known,16,/Users/dan/Projects/callab/tunkel/Negation2.0/Experiment2/contrastA/production-results/3JUDR1D0D6G4MF9B8WR1AFVRI74Q28-3NGI5ARFTUUFJ2OUFHH0TBQ3ZBSP11.json,2,standard,FALSE
2133.994999981950,ring,NA,115655,9,8,F,known,16,/Users/dan/Projects/callab/tunkel/Negation2.0/Experiment2/contrastA/production-results/3JUDR1D0D6G4MF9B8WR1AFVRI74Q28-3NGI5ARFTUUFJ2OUFHH0TBQ3ZBSP11.json,3,standard,FALSE
6693.109999992890,fuzzy donut,NA,124455,10,F,4,unknown,16,/Users/dan/Projects/callab/tunkel/Negation2.0/Experiment2/contrastA/production-results/3JUDR1D0D6G4MF9B8WR1AFVRI74Q28-3NGI5ARFTUUFJ2OUFHH0TBQ3ZBSP11.json,1,switch,FALSE
4077.4300000048200,blocks,NA,131639,11,J,15,unknown,16,/Users/dan/Projects/callab/tunkel/Negation2.0/Experiment2/contrastA/production-results/3JUDR1D0D6G4MF9B8WR1AFVRI74Q28-3NGI5ARFTUUFJ2OUFHH0TBQ3ZBSP11.json,1,standard,FALSE
4009.66999999946,butterfly,NA,137255,12,12,K,known,16,/Users/dan/Projects/callab/tunkel/Negation2.0/Experiment2/contrastA/production-results/3JUDR1D0D6G4MF9B8WR1AFVRI74Q28-3NGI5ARFTUUFJ2OUFHH0TBQ3ZBSP11.json,1,standard,FALSE
3530.70999996271,barbell,NA,142143,13,G,5,unknown,16,/Users/dan/Projects/callab/tunkel/Negation2.0/Experiment2/contrastA/production-results/3JUDR1D0D6G4MF9B8WR1AFVRI74Q28-3NGI5ARFTUUFJ2OUFHH0TBQ3ZBSP11.json,1,standard,FALSE
5920.724999974480,cup,NA,148920,14,10,M,known,16,/Users/dan/Projects/callab/tunkel/Negation2.0/Experiment2/contrastA/production-results/3JUDR1D0D6G4MF9B8WR1AFVRI74Q28-3NGI5ARFTUUFJ2OUFHH0TBQ3ZBSP11.json,1,standard,FALSE
9705.249999999070,weird doohicky,NA,161234,15,N,7,unknown,16,/Users/dan/Projects/callab/tunkel/Negation2.0/Experiment2/contrastA/production-results/3JUDR1D0D6G4MF9B8WR1AFVRI74Q28-3NGI5ARFTUUFJ2OUFHH0TBQ3ZBSP11.json,1,standard,FALSE
4899.420000030660,weird doohicky,NA,169240,16,E,7,unknown,16,/Users/dan/Projects/callab/tunkel/Negation2.0/Experiment2/contrastA/production-results/3JUDR1D0D6G4MF9B8WR1AFVRI74Q28-3NGI5ARFTUUFJ2OUFHH0TBQ3ZBSP11.json,2,standard,FALSE
5060.089999984480,tunnel,NA,175408,17,I,7,unknown,16,/Users/dan/Projects/callab/tunkel/Negation2.0/Experiment2/contrastA/production-results/3JUDR1D0D6G4MF9B8WR1AFVRI74Q28-3NGI5ARFTUUFJ2OUFHH0TBQ3ZBSP11.json,3,standard,FALSE
3785.9150000149400,shoe,NA,180808,18,7,C,known,16,/Users/dan/Projects/callab/tunkel/Negation2.0/Experiment2/contrastA/production-results/3JUDR1D0D6G4MF9B8WR1AFVRI74Q28-3NGI5ARFTUUFJ2OUFHH0TBQ3ZBSP11.json,1,switch,FALSE
15031.214999995400,shape,NA,115165,3,F,11,unknown,17,/Users/dan/Projects/callab/tunkel/Negation2.0/Experiment2/contrastB/production-results/3ZLW647WALKCFE39ALF5X72G8FR32J-33M4IA01QHQ8LGP2Z26WTFUJ58VXRT.json,1,standard,FALSE
5045.25999998441,flower,NA,121575,4,3,L,known,17,/Users/dan/Projects/callab/tunkel/Negation2.0/Experiment2/contrastB/production-results/3ZLW647WALKCFE39ALF5X72G8FR32J-33M4IA01QHQ8LGP2Z26WTFUJ58VXRT.json,1,standard,FALSE
10969.744999980300,not a fork,NA,135155,5,G,16,unknown,17,/Users/dan/Projects/callab/tunkel/Negation2.0/Experiment2/contrastB/production-results/3ZLW647WALKCFE39ALF5X72G8FR32J-33M4IA01QHQ8LGP2Z26WTFUJ58VXRT.json,1,standard,TRUE
3080.8499999984600,cat,NA,140095,6,1,B,known,17,/Users/dan/Projects/callab/tunkel/Negation2.0/Experiment2/contrastB/production-results/3ZLW647WALKCFE39ALF5X72G8FR32J-33M4IA01QHQ8LGP2Z26WTFUJ58VXRT.json,1,standard,FALSE
13744.084999983900,flower,NA,154696,7,J,8,unknown,17,/Users/dan/Projects/callab/tunkel/Negation2.0/Experiment2/contrastB/production-results/3ZLW647WALKCFE39ALF5X72G8FR32J-33M4IA01QHQ8LGP2Z26WTFUJ58VXRT.json,1,standard,FALSE
8617.94500000542,not a car,NA,164923,8,I,8,unknown,17,/Users/dan/Projects/callab/tunkel/Negation2.0/Experiment2/contrastB/production-results/3ZLW647WALKCFE39ALF5X72G8FR32J-33M4IA01QHQ8LGP2Z26WTFUJ58VXRT.json,2,standard,TRUE
11073.690000019300,art,NA,177102,9,A,8,unknown,17,/Users/dan/Projects/callab/tunkel/Negation2.0/Experiment2/contrastB/production-results/3ZLW647WALKCFE39ALF5X72G8FR32J-33M4IA01QHQ8LGP2Z26WTFUJ58VXRT.json,3,standard,FALSE
5786.049999995160,shoe,NA,184750,10,8,C,known,17,/Users/dan/Projects/callab/tunkel/Negation2.0/Experiment2/contrastB/production-results/3ZLW647WALKCFE39ALF5X72G8FR32J-33M4IA01QHQ8LGP2Z26WTFUJ58VXRT.json,1,switch,FALSE
6615.755000006180,chair,NA,192222,11,7,E,known,17,/Users/dan/Projects/callab/tunkel/Negation2.0/Experiment2/contrastB/production-results/3ZLW647WALKCFE39ALF5X72G8FR32J-33M4IA01QHQ8LGP2Z26WTFUJ58VXRT.json,1,standard,FALSE
9285.705000016610,object,NA,202365,12,D,6,unknown,17,/Users/dan/Projects/callab/tunkel/Negation2.0/Experiment2/contrastB/production-results/3ZLW647WALKCFE39ALF5X72G8FR32J-33M4IA01QHQ8LGP2Z26WTFUJ58VXRT.json,1,standard,FALSE
6989.849999983560,donut,NA,210966,13,M,4,unknown,17,/Users/dan/Projects/callab/tunkel/Negation2.0/Experiment2/contrastB/production-results/3ZLW647WALKCFE39ALF5X72G8FR32J-33M4IA01QHQ8LGP2Z26WTFUJ58VXRT.json,1,standard,FALSE
4001.589999999850,dice,NA,215829,14,12,H,known,17,/Users/dan/Projects/callab/tunkel/Negation2.0/Experiment2/contrastB/production-results/3ZLW647WALKCFE39ALF5X72G8FR32J-33M4IA01QHQ8LGP2Z26WTFUJ58VXRT.json,1,standard,FALSE
2775.2399999881200,crab,NA,220465,15,10,N,known,17,/Users/dan/Projects/callab/tunkel/Negation2.0/Experiment2/contrastB/production-results/3ZLW647WALKCFE39ALF5X72G8FR32J-33M4IA01QHQ8LGP2Z26WTFUJ58VXRT.json,1,standard,FALSE
2542.6900000020400,crab,NA,224368,16,5,N,known,17,/Users/dan/Projects/callab/tunkel/Negation2.0/Experiment2/contrastB/production-results/3ZLW647WALKCFE39ALF5X72G8FR32J-33M4IA01QHQ8LGP2Z26WTFUJ58VXRT.json,2,standard,FALSE
2219.2199999990400,crab,NA,227699,17,2,N,known,17,/Users/dan/Projects/callab/tunkel/Negation2.0/Experiment2/contrastB/production-results/3ZLW647WALKCFE39ALF5X72G8FR32J-33M4IA01QHQ8LGP2Z26WTFUJ58VXRT.json,3,standard,FALSE
4361.180000007150,object,NA,233920,18,N,9,unknown,17,/Users/dan/Projects/callab/tunkel/Negation2.0/Experiment2/contrastB/production-results/3ZLW647WALKCFE39ALF5X72G8FR32J-33M4IA01QHQ8LGP2Z26WTFUJ58VXRT.json,1,switch,FALSE
8306.27000000095,bow,NA,99031,3,E,8,unknown,18,/Users/dan/Projects/callab/tunkel/Negation2.0/Experiment2/contrastB/production-results/3NFWQRSHVE3XAKR9TV1W0KLELO1FGN-3Y4W8Q93L09MGH12HMAU05GUAWWVDI.json,1,standard,FALSE
2082.5999999651700,cup,NA,104231,4,3,M,known,18,/Users/dan/Projects/callab/tunkel/Negation2.0/Experiment2/contrastB/production-results/3NFWQRSHVE3XAKR9TV1W0KLELO1FGN-3Y4W8Q93L09MGH12HMAU05GUAWWVDI.json,1,standard,FALSE
4826.975000032690,tool,NA,109924,5,A,9,unknown,18,/Users/dan/Projects/callab/tunkel/Negation2.0/Experiment2/contrastB/production-results/3NFWQRSHVE3XAKR9TV1W0KLELO1FGN-3Y4W8Q93L09MGH12HMAU05GUAWWVDI.json,1,standard,FALSE
5392.234999977520,car,NA,116182,6,10,I,known,18,/Users/dan/Projects/callab/tunkel/Negation2.0/Experiment2/contrastB/production-results/3NFWQRSHVE3XAKR9TV1W0KLELO1FGN-3Y4W8Q93L09MGH12HMAU05GUAWWVDI.json,1,standard,FALSE
4059.8750000353900,blimp,NA,121360,7,D,16,unknown,18,/Users/dan/Projects/callab/tunkel/Negation2.0/Experiment2/contrastB/production-results/3NFWQRSHVE3XAKR9TV1W0KLELO1FGN-3Y4W8Q93L09MGH12HMAU05GUAWWVDI.json,1,standard,FALSE
1954.02499998454,blimp,NA,124444,8,H,16,unknown,18,/Users/dan/Projects/callab/tunkel/Negation2.0/Experiment2/contrastB/production-results/3NFWQRSHVE3XAKR9TV1W0KLELO1FGN-3Y4W8Q93L09MGH12HMAU05GUAWWVDI.json,2,standard,FALSE
1534.0600000345100,blimp,NA,127347,9,F,16,unknown,18,/Users/dan/Projects/callab/tunkel/Negation2.0/Experiment2/contrastB/production-results/3NFWQRSHVE3XAKR9TV1W0KLELO1FGN-3Y4W8Q93L09MGH12HMAU05GUAWWVDI.json,3,standard,FALSE
1611.060000024740,tree,NA,131576,10,16,J,known,18,/Users/dan/Projects/callab/tunkel/Negation2.0/Experiment2/contrastB/production-results/3NFWQRSHVE3XAKR9TV1W0KLELO1FGN-3Y4W8Q93L09MGH12HMAU05GUAWWVDI.json,1,switch,FALSE
1376.2950000236700,shoe,NA,133821,11,1,C,known,18,/Users/dan/Projects/callab/tunkel/Negation2.0/Experiment2/contrastB/production-results/3NFWQRSHVE3XAKR9TV1W0KLELO1FGN-3Y4W8Q93L09MGH12HMAU05GUAWWVDI.json,1,standard,FALSE
3723.71499997098,not cat,NA,140166,12,B,4,unknown,18,/Users/dan/Projects/callab/tunkel/Negation2.0/Experiment2/contrastB/production-results/3NFWQRSHVE3XAKR9TV1W0KLELO1FGN-3Y4W8Q93L09MGH12HMAU05GUAWWVDI.json,1,standard,TRUE
3176.919999998060,not flower,NA,145209,13,L,12,unknown,18,/Users/dan/Projects/callab/tunkel/Negation2.0/Experiment2/contrastB/production-results/3NFWQRSHVE3XAKR9TV1W0KLELO1FGN-3Y4W8Q93L09MGH12HMAU05GUAWWVDI.json,1,standard,TRUE
3038.944999978410,butterfly,NA,149123,14,2,K,known,18,/Users/dan/Projects/callab/tunkel/Negation2.0/Experiment2/contrastB/production-results/3NFWQRSHVE3XAKR9TV1W0KLELO1FGN-3Y4W8Q93L09MGH12HMAU05GUAWWVDI.json,1,standard,FALSE
1328.0050000175800,fork,NA,151566,15,5,G,known,18,/Users/dan/Projects/callab/tunkel/Negation2.0/Experiment2/contrastB/production-results/3NFWQRSHVE3XAKR9TV1W0KLELO1FGN-3Y4W8Q93L09MGH12HMAU05GUAWWVDI.json,1,standard,FALSE
1131.9999999832400,fork,NA,154820,16,7,G,known,18,/Users/dan/Projects/callab/tunkel/Negation2.0/Experiment2/contrastB/production-results/3NFWQRSHVE3XAKR9TV1W0KLELO1FGN-3Y4W8Q93L09MGH12HMAU05GUAWWVDI.json,2,standard,FALSE
1446.8200000119400,fork,NA,157132,17,15,G,known,18,/Users/dan/Projects/callab/tunkel/Negation2.0/Experiment2/contrastB/production-results/3NFWQRSHVE3XAKR9TV1W0KLELO1FGN-3Y4W8Q93L09MGH12HMAU05GUAWWVDI.json,3,standard,FALSE
2297.024999978020,not fork,NA,161055,18,G,11,unknown,18,/Users/dan/Projects/callab/tunkel/Negation2.0/Experiment2/contrastB/production-results/3NFWQRSHVE3XAKR9TV1W0KLELO1FGN-3Y4W8Q93L09MGH12HMAU05GUAWWVDI.json,1,switch,TRUE
27111.000000033500,its a toy,NA,1634797,3,D,16,unknown,19,/Users/dan/Projects/callab/tunkel/Negation2.0/Experiment2/contrastB/production-results/3NFWQRSHVE3XAKR9TV1W0KLELO1FGN-3IKZ72A5B5566W6P61JTEOP206ANF4.json,1,standard,FALSE
22329.00000002700,chair,NA,1659733,4,15,E,known,19,/Users/dan/Projects/callab/tunkel/Negation2.0/Experiment2/contrastB/production-results/3NFWQRSHVE3XAKR9TV1W0KLELO1FGN-3IKZ72A5B5566W6P61JTEOP206ANF4.json,1,standard,FALSE
39366.999999969300,glass,NA,1700206,5,J,2,unknown,19,/Users/dan/Projects/callab/tunkel/Negation2.0/Experiment2/contrastB/production-results/3NFWQRSHVE3XAKR9TV1W0KLELO1FGN-3IKZ72A5B5566W6P61JTEOP206ANF4.json,1,standard,FALSE
16312.000000034500,cat,NA,1717623,6,4,B,known,19,/Users/dan/Projects/callab/tunkel/Negation2.0/Experiment2/contrastB/production-results/3NFWQRSHVE3XAKR9TV1W0KLELO1FGN-3IKZ72A5B5566W6P61JTEOP206ANF4.json,1,standard,FALSE
39321.99999992740,unknown,NA,1757800,7,L,3,unknown,19,/Users/dan/Projects/callab/tunkel/Negation2.0/Experiment2/contrastB/production-results/3NFWQRSHVE3XAKR9TV1W0KLELO1FGN-3IKZ72A5B5566W6P61JTEOP206ANF4.json,1,standard,FALSE
7773.0000000447000,unknown,NA,1766928,8,H,3,unknown,19,/Users/dan/Projects/callab/tunkel/Negation2.0/Experiment2/contrastB/production-results/3NFWQRSHVE3XAKR9TV1W0KLELO1FGN-3IKZ72A5B5566W6P61JTEOP206ANF4.json,2,standard,FALSE
35391.99999999260,shapeless vessel,NA,1804176,9,I,3,unknown,19,/Users/dan/Projects/callab/tunkel/Negation2.0/Experiment2/contrastB/production-results/3NFWQRSHVE3XAKR9TV1W0KLELO1FGN-3IKZ72A5B5566W6P61JTEOP206ANF4.json,3,standard,FALSE
16907.00000000650,fork,NA,1822938,10,3,G,known,19,/Users/dan/Projects/callab/tunkel/Negation2.0/Experiment2/contrastB/production-results/3NFWQRSHVE3XAKR9TV1W0KLELO1FGN-3IKZ72A5B5566W6P61JTEOP206ANF4.json,1,switch,FALSE
19926.99999990870,butterfly,NA,1844969,11,11,K,known,19,/Users/dan/Projects/callab/tunkel/Negation2.0/Experiment2/contrastB/production-results/3NFWQRSHVE3XAKR9TV1W0KLELO1FGN-3IKZ72A5B5566W6P61JTEOP206ANF4.json,1,standard,FALSE
22143.99999997110,tumbles,NA,1868217,12,C,5,unknown,19,/Users/dan/Projects/callab/tunkel/Negation2.0/Experiment2/contrastB/production-results/3NFWQRSHVE3XAKR9TV1W0KLELO1FGN-3IKZ72A5B5566W6P61JTEOP206ANF4.json,1,standard,FALSE
8123.00000002142,toy,NA,1877194,13,N,9,unknown,19,/Users/dan/Projects/callab/tunkel/Negation2.0/Experiment2/contrastB/production-results/3NFWQRSHVE3XAKR9TV1W0KLELO1FGN-3IKZ72A5B5566W6P61JTEOP206ANF4.json,1,standard,FALSE
4900.000000023280,ring,NA,1883451,14,10,F,known,19,/Users/dan/Projects/callab/tunkel/Negation2.0/Experiment2/contrastB/production-results/3NFWQRSHVE3XAKR9TV1W0KLELO1FGN-3IKZ72A5B5566W6P61JTEOP206ANF4.json,1,standard,FALSE
7707.9999999841700,cup,NA,1892762,15,1,M,known,19,/Users/dan/Projects/callab/tunkel/Negation2.0/Experiment2/contrastB/production-results/3NFWQRSHVE3XAKR9TV1W0KLELO1FGN-3IKZ72A5B5566W6P61JTEOP206ANF4.json,1,standard,FALSE
7081.99999993667,cup,NA,1901702,16,6,M,known,19,/Users/dan/Projects/callab/tunkel/Negation2.0/Experiment2/contrastB/production-results/3NFWQRSHVE3XAKR9TV1W0KLELO1FGN-3IKZ72A5B5566W6P61JTEOP206ANF4.json,2,standard,FALSE
5190.000000060540,mug,NA,1907996,17,7,M,known,19,/Users/dan/Projects/callab/tunkel/Negation2.0/Experiment2/contrastB/production-results/3NFWQRSHVE3XAKR9TV1W0KLELO1FGN-3IKZ72A5B5566W6P61JTEOP206ANF4.json,3,standard,FALSE
10154.000000096900,unknown,NA,1920003,18,M,8,unknown,19,/Users/dan/Projects/callab/tunkel/Negation2.0/Experiment2/contrastB/production-results/3NFWQRSHVE3XAKR9TV1W0KLELO1FGN-3IKZ72A5B5566W6P61JTEOP206ANF4.json,1,switch,FALSE
3022.705000001220,dice,NA,56363,3,5,H,known,20,/Users/dan/Projects/callab/tunkel/Negation2.0/Experiment2/contrastA/production-results/3JUDR1D0D6G4MF9B8WR1AFVRI74Q28-3IAEQB9FMF9ZV6177WFQM7Z8H5RWDM.json,1,standard,FALSE
3162.669999999710,art,NA,61396,4,A,9,unknown,20,/Users/dan/Projects/callab/tunkel/Negation2.0/Experiment2/contrastA/production-results/3JUDR1D0D6G4MF9B8WR1AFVRI74Q28-3IAEQB9FMF9ZV6177WFQM7Z8H5RWDM.json,1,standard,FALSE
4248.4800000002,snowboard,NA,67511,5,D,7,unknown,20,/Users/dan/Projects/callab/tunkel/Negation2.0/Experiment2/contrastA/production-results/3JUDR1D0D6G4MF9B8WR1AFVRI74Q28-3IAEQB9FMF9ZV6177WFQM7Z8H5RWDM.json,1,standard,FALSE
15390.074999999300,chair,NA,84523,6,3,E,known,20,/Users/dan/Projects/callab/tunkel/Negation2.0/Experiment2/contrastA/production-results/3JUDR1D0D6G4MF9B8WR1AFVRI74Q28-3IAEQB9FMF9ZV6177WFQM7Z8H5RWDM.json,1,standard,FALSE
3011.339999999110,mug,NA,89651,7,2,M,known,20,/Users/dan/Projects/callab/tunkel/Negation2.0/Experiment2/contrastA/production-results/3JUDR1D0D6G4MF9B8WR1AFVRI74Q28-3IAEQB9FMF9ZV6177WFQM7Z8H5RWDM.json,1,standard,FALSE
2786.5550000005900,mug,NA,93813,8,1,M,known,20,/Users/dan/Projects/callab/tunkel/Negation2.0/Experiment2/contrastA/production-results/3JUDR1D0D6G4MF9B8WR1AFVRI74Q28-3IAEQB9FMF9ZV6177WFQM7Z8H5RWDM.json,2,standard,FALSE
2397.1700000001900,mug,NA,97827,9,16,M,known,20,/Users/dan/Projects/callab/tunkel/Negation2.0/Experiment2/contrastA/production-results/3JUDR1D0D6G4MF9B8WR1AFVRI74Q28-3IAEQB9FMF9ZV6177WFQM7Z8H5RWDM.json,3,standard,FALSE
7714.02499999931,plunger,NA,107410,10,M,10,unknown,20,/Users/dan/Projects/callab/tunkel/Negation2.0/Experiment2/contrastA/production-results/3JUDR1D0D6G4MF9B8WR1AFVRI74Q28-3IAEQB9FMF9ZV6177WFQM7Z8H5RWDM.json,1,switch,FALSE
2849.210000000310,art,NA,111883,11,C,12,unknown,20,/Users/dan/Projects/callab/tunkel/Negation2.0/Experiment2/contrastA/production-results/3JUDR1D0D6G4MF9B8WR1AFVRI74Q28-3IAEQB9FMF9ZV6177WFQM7Z8H5RWDM.json,1,standard,FALSE
5242.334999999000,fork,NA,119260,12,11,G,known,20,/Users/dan/Projects/callab/tunkel/Negation2.0/Experiment2/contrastA/production-results/3JUDR1D0D6G4MF9B8WR1AFVRI74Q28-3IAEQB9FMF9ZV6177WFQM7Z8H5RWDM.json,1,standard,FALSE
3598.7999999997600,blocks,NA,123981,13,K,15,unknown,20,/Users/dan/Projects/callab/tunkel/Negation2.0/Experiment2/contrastA/production-results/3JUDR1D0D6G4MF9B8WR1AFVRI74Q28-3IAEQB9FMF9ZV6177WFQM7Z8H5RWDM.json,1,standard,FALSE
2610.2800000007800,cat,NA,127714,14,6,B,known,20,/Users/dan/Projects/callab/tunkel/Negation2.0/Experiment2/contrastA/production-results/3JUDR1D0D6G4MF9B8WR1AFVRI74Q28-3IAEQB9FMF9ZV6177WFQM7Z8H5RWDM.json,1,standard,FALSE
4557.839999999490,ball,NA,134148,15,I,8,unknown,20,/Users/dan/Projects/callab/tunkel/Negation2.0/Experiment2/contrastA/production-results/3JUDR1D0D6G4MF9B8WR1AFVRI74Q28-3IAEQB9FMF9ZV6177WFQM7Z8H5RWDM.json,1,standard,FALSE
3119.0500000011500,ball,NA,139135,16,L,8,unknown,20,/Users/dan/Projects/callab/tunkel/Negation2.0/Experiment2/contrastA/production-results/3JUDR1D0D6G4MF9B8WR1AFVRI74Q28-3IAEQB9FMF9ZV6177WFQM7Z8H5RWDM.json,2,standard,FALSE
2569.590000000990,ball,NA,142571,17,N,8,unknown,20,/Users/dan/Projects/callab/tunkel/Negation2.0/Experiment2/contrastA/production-results/3JUDR1D0D6G4MF9B8WR1AFVRI74Q28-3IAEQB9FMF9ZV6177WFQM7Z8H5RWDM.json,3,standard,FALSE
2838.6700000009700,ring,NA,147277,18,8,F,known,20,/Users/dan/Projects/callab/tunkel/Negation2.0/Experiment2/contrastA/production-results/3JUDR1D0D6G4MF9B8WR1AFVRI74Q28-3IAEQB9FMF9ZV6177WFQM7Z8H5RWDM.json,1,switch,FALSE
7071.714999998220,shape,NA,167639,3,N,11,unknown,21,/Users/dan/Projects/callab/tunkel/Negation2.0/Experiment2/contrastB/production-results/3NFWQRSHVE3XAKR9TV1W0KLELO1FGN-3MX2NQ3YCAJJGTR42VTTQEPNDQ75XO.json,1,standard,FALSE
3151.9200000002500,pen,NA,172895,4,15,D,known,21,/Users/dan/Projects/callab/tunkel/Negation2.0/Experiment2/contrastB/production-results/3NFWQRSHVE3XAKR9TV1W0KLELO1FGN-3MX2NQ3YCAJJGTR42VTTQEPNDQ75XO.json,1,standard,FALSE
10504.83499999970,spiked balls,NA,184506,5,A,1,unknown,21,/Users/dan/Projects/callab/tunkel/Negation2.0/Experiment2/contrastB/production-results/3NFWQRSHVE3XAKR9TV1W0KLELO1FGN-3MX2NQ3YCAJJGTR42VTTQEPNDQ75XO.json,1,standard,FALSE
3287.4899999988000,shoe,NA,190897,6,9,C,known,21,/Users/dan/Projects/callab/tunkel/Negation2.0/Experiment2/contrastB/production-results/3NFWQRSHVE3XAKR9TV1W0KLELO1FGN-3MX2NQ3YCAJJGTR42VTTQEPNDQ75XO.json,1,standard,FALSE
12567.225000002500,glove,NA,206568,7,E,3,unknown,21,/Users/dan/Projects/callab/tunkel/Negation2.0/Experiment2/contrastB/production-results/3NFWQRSHVE3XAKR9TV1W0KLELO1FGN-3MX2NQ3YCAJJGTR42VTTQEPNDQ75XO.json,1,standard,FALSE
10348.245000001000,glove,NA,219520,8,F,3,unknown,21,/Users/dan/Projects/callab/tunkel/Negation2.0/Experiment2/contrastB/production-results/3NFWQRSHVE3XAKR9TV1W0KLELO1FGN-3MX2NQ3YCAJJGTR42VTTQEPNDQ75XO.json,2,standard,FALSE
3615.8050000012700,glove,NA,226239,9,J,3,unknown,21,/Users/dan/Projects/callab/tunkel/Negation2.0/Experiment2/contrastB/production-results/3NFWQRSHVE3XAKR9TV1W0KLELO1FGN-3MX2NQ3YCAJJGTR42VTTQEPNDQ75XO.json,3,standard,FALSE
2082.6449999985900,car,NA,229175,10,3,I,known,21,/Users/dan/Projects/callab/tunkel/Negation2.0/Experiment2/contrastB/production-results/3NFWQRSHVE3XAKR9TV1W0KLELO1FGN-3MX2NQ3YCAJJGTR42VTTQEPNDQ75XO.json,1,switch,FALSE
3300.3700000008400,mug,NA,234079,11,4,M,known,21,/Users/dan/Projects/callab/tunkel/Negation2.0/Experiment2/contrastB/production-results/3NFWQRSHVE3XAKR9TV1W0KLELO1FGN-3MX2NQ3YCAJJGTR42VTTQEPNDQ75XO.json,1,standard,FALSE
6802.200000001900,clip,NA,242734,12,L,6,unknown,21,/Users/dan/Projects/callab/tunkel/Negation2.0/Experiment2/contrastB/production-results/3NFWQRSHVE3XAKR9TV1W0KLELO1FGN-3MX2NQ3YCAJJGTR42VTTQEPNDQ75XO.json,1,standard,FALSE
7312.099999999190,balls,NA,253154,13,K,2,unknown,21,/Users/dan/Projects/callab/tunkel/Negation2.0/Experiment2/contrastB/production-results/3NFWQRSHVE3XAKR9TV1W0KLELO1FGN-3MX2NQ3YCAJJGTR42VTTQEPNDQ75XO.json,1,standard,FALSE
3155.6799999998500,fork,NA,257913,14,16,G,known,21,/Users/dan/Projects/callab/tunkel/Negation2.0/Experiment2/contrastB/production-results/3NFWQRSHVE3XAKR9TV1W0KLELO1FGN-3MX2NQ3YCAJJGTR42VTTQEPNDQ75XO.json,1,standard,FALSE
2792.2599999983200,die,NA,262809,15,5,H,known,21,/Users/dan/Projects/callab/tunkel/Negation2.0/Experiment2/contrastB/production-results/3NFWQRSHVE3XAKR9TV1W0KLELO1FGN-3MX2NQ3YCAJJGTR42VTTQEPNDQ75XO.json,1,standard,FALSE
2720.505000001170,die,NA,267633,16,12,H,known,21,/Users/dan/Projects/callab/tunkel/Negation2.0/Experiment2/contrastB/production-results/3NFWQRSHVE3XAKR9TV1W0KLELO1FGN-3MX2NQ3YCAJJGTR42VTTQEPNDQ75XO.json,2,standard,FALSE
2895.4200000007400,die,NA,271632,17,10,H,known,21,/Users/dan/Projects/callab/tunkel/Negation2.0/Experiment2/contrastB/production-results/3NFWQRSHVE3XAKR9TV1W0KLELO1FGN-3MX2NQ3YCAJJGTR42VTTQEPNDQ75XO.json,3,standard,FALSE
7177.335000000310,shape,NA,279664,18,H,8,unknown,21,/Users/dan/Projects/callab/tunkel/Negation2.0/Experiment2/contrastB/production-results/3NFWQRSHVE3XAKR9TV1W0KLELO1FGN-3MX2NQ3YCAJJGTR42VTTQEPNDQ75XO.json,1,switch,FALSE
7449.310000000060,toy aeroplane,NA,1222419,3,M,5,unknown,22,/Users/dan/Projects/callab/tunkel/Negation2.0/Experiment2/contrastB/production-results/3NFWQRSHVE3XAKR9TV1W0KLELO1FGN-3E337GFOLAXCKW2KHLPBW9PE1LANG3.json,1,standard,FALSE
2528.4749999998600,car,NA,1227059,4,9,I,known,22,/Users/dan/Projects/callab/tunkel/Negation2.0/Experiment2/contrastB/production-results/3NFWQRSHVE3XAKR9TV1W0KLELO1FGN-3E337GFOLAXCKW2KHLPBW9PE1LANG3.json,1,standard,FALSE
3490.250000000230,scrap,NA,1232657,5,D,8,unknown,22,/Users/dan/Projects/callab/tunkel/Negation2.0/Experiment2/contrastB/production-results/3NFWQRSHVE3XAKR9TV1W0KLELO1FGN-3E337GFOLAXCKW2KHLPBW9PE1LANG3.json,1,standard,FALSE
3604.3649999999900,chair,NA,1238369,6,6,E,known,22,/Users/dan/Projects/callab/tunkel/Negation2.0/Experiment2/contrastB/production-results/3NFWQRSHVE3XAKR9TV1W0KLELO1FGN-3E337GFOLAXCKW2KHLPBW9PE1LANG3.json,1,standard,FALSE
4900.880000000120,toy,NA,1245378,7,N,16,unknown,22,/Users/dan/Projects/callab/tunkel/Negation2.0/Experiment2/contrastB/production-results/3NFWQRSHVE3XAKR9TV1W0KLELO1FGN-3E337GFOLAXCKW2KHLPBW9PE1LANG3.json,1,standard,FALSE
3030.1500000001400,toy,NA,1250265,8,K,16,unknown,22,/Users/dan/Projects/callab/tunkel/Negation2.0/Experiment2/contrastB/production-results/3NFWQRSHVE3XAKR9TV1W0KLELO1FGN-3E337GFOLAXCKW2KHLPBW9PE1LANG3.json,2,standard,FALSE
2646.844999999970,toy,NA,1254770,9,A,16,unknown,22,/Users/dan/Projects/callab/tunkel/Negation2.0/Experiment2/contrastB/production-results/3NFWQRSHVE3XAKR9TV1W0KLELO1FGN-3E337GFOLAXCKW2KHLPBW9PE1LANG3.json,3,standard,FALSE
3234.060000000060,shoe,NA,1260114,10,16,C,known,22,/Users/dan/Projects/callab/tunkel/Negation2.0/Experiment2/contrastB/production-results/3NFWQRSHVE3XAKR9TV1W0KLELO1FGN-3E337GFOLAXCKW2KHLPBW9PE1LANG3.json,1,switch,FALSE
3073.3050000001700,cat,NA,1264547,11,10,B,known,22,/Users/dan/Projects/callab/tunkel/Negation2.0/Experiment2/contrastB/production-results/3NFWQRSHVE3XAKR9TV1W0KLELO1FGN-3E337GFOLAXCKW2KHLPBW9PE1LANG3.json,1,standard,FALSE
3620,toy,NA,1270025,12,F,4,unknown,22,/Users/dan/Projects/callab/tunkel/Negation2.0/Experiment2/contrastB/production-results/3NFWQRSHVE3XAKR9TV1W0KLELO1FGN-3E337GFOLAXCKW2KHLPBW9PE1LANG3.json,1,standard,FALSE
3931.155000000030,scrap,NA,1274817,13,J,11,unknown,22,/Users/dan/Projects/callab/tunkel/Negation2.0/Experiment2/contrastB/production-results/3NFWQRSHVE3XAKR9TV1W0KLELO1FGN-3E337GFOLAXCKW2KHLPBW9PE1LANG3.json,1,standard,FALSE
8865.320000000070,sun flower,NA,1285289,14,2,L,known,22,/Users/dan/Projects/callab/tunkel/Negation2.0/Experiment2/contrastB/production-results/3NFWQRSHVE3XAKR9TV1W0KLELO1FGN-3E337GFOLAXCKW2KHLPBW9PE1LANG3.json,1,standard,FALSE
3473.6100000001000,fork,NA,1290873,15,1,G,known,22,/Users/dan/Projects/callab/tunkel/Negation2.0/Experiment2/contrastB/production-results/3NFWQRSHVE3XAKR9TV1W0KLELO1FGN-3E337GFOLAXCKW2KHLPBW9PE1LANG3.json,1,standard,FALSE
2888.875,fork,NA,1295873,16,12,G,known,22,/Users/dan/Projects/callab/tunkel/Negation2.0/Experiment2/contrastB/production-results/3NFWQRSHVE3XAKR9TV1W0KLELO1FGN-3E337GFOLAXCKW2KHLPBW9PE1LANG3.json,2,standard,FALSE
3825.0449999999300,fork,NA,1301809,17,7,G,known,22,/Users/dan/Projects/callab/tunkel/Negation2.0/Experiment2/contrastB/production-results/3NFWQRSHVE3XAKR9TV1W0KLELO1FGN-3E337GFOLAXCKW2KHLPBW9PE1LANG3.json,3,standard,FALSE
5692.4550000000700,toy,NA,1308611,18,G,15,unknown,22,/Users/dan/Projects/callab/tunkel/Negation2.0/Experiment2/contrastB/production-results/3NFWQRSHVE3XAKR9TV1W0KLELO1FGN-3E337GFOLAXCKW2KHLPBW9PE1LANG3.json,1,switch,FALSE
3400.5899999756400,tree,NA,93319,3,11,J,known,23,/Users/dan/Projects/callab/tunkel/Negation2.0/Experiment2/contrastA/production-results/3JUDR1D0D6G4MF9B8WR1AFVRI74Q28-35GCEFQ6I6D5794FPUTL827E7UDZ3O.json,1,standard,FALSE
5344.74999998929,jet,NA,101769,4,I,16,unknown,23,/Users/dan/Projects/callab/tunkel/Negation2.0/Experiment2/contrastA/production-results/3JUDR1D0D6G4MF9B8WR1AFVRI74Q28-35GCEFQ6I6D5794FPUTL827E7UDZ3O.json,1,standard,FALSE
7935.954999993560,art,NA,111810,5,F,8,unknown,23,/Users/dan/Projects/callab/tunkel/Negation2.0/Experiment2/contrastA/production-results/3JUDR1D0D6G4MF9B8WR1AFVRI74Q28-35GCEFQ6I6D5794FPUTL827E7UDZ3O.json,1,standard,FALSE
3232.9700000118500,flower,NA,116148,6,5,L,known,23,/Users/dan/Projects/callab/tunkel/Negation2.0/Experiment2/contrastA/production-results/3JUDR1D0D6G4MF9B8WR1AFVRI74Q28-35GCEFQ6I6D5794FPUTL827E7UDZ3O.json,1,standard,FALSE
4186.660000006670,apple,NA,121440,7,12,A,known,23,/Users/dan/Projects/callab/tunkel/Negation2.0/Experiment2/contrastA/production-results/3JUDR1D0D6G4MF9B8WR1AFVRI74Q28-35GCEFQ6I6D5794FPUTL827E7UDZ3O.json,1,standard,FALSE
3319.4800000055700,apple,NA,126866,8,15,A,known,23,/Users/dan/Projects/callab/tunkel/Negation2.0/Experiment2/contrastA/production-results/3JUDR1D0D6G4MF9B8WR1AFVRI74Q28-35GCEFQ6I6D5794FPUTL827E7UDZ3O.json,2,standard,FALSE
3759.230000025130,apple,NA,133739,9,1,A,known,23,/Users/dan/Projects/callab/tunkel/Negation2.0/Experiment2/contrastA/production-results/3JUDR1D0D6G4MF9B8WR1AFVRI74Q28-35GCEFQ6I6D5794FPUTL827E7UDZ3O.json,3,standard,FALSE
8113.669999991540,sculpture,NA,143458,10,A,3,unknown,23,/Users/dan/Projects/callab/tunkel/Negation2.0/Experiment2/contrastA/production-results/3JUDR1D0D6G4MF9B8WR1AFVRI74Q28-35GCEFQ6I6D5794FPUTL827E7UDZ3O.json,1,switch,FALSE
5247.205000021500,ski,NA,151312,11,H,7,unknown,23,/Users/dan/Projects/callab/tunkel/Negation2.0/Experiment2/contrastA/production-results/3JUDR1D0D6G4MF9B8WR1AFVRI74Q28-35GCEFQ6I6D5794FPUTL827E7UDZ3O.json,1,standard,FALSE
5762.860000017100,butterfly,NA,158930,12,2,K,known,23,/Users/dan/Projects/callab/tunkel/Negation2.0/Experiment2/contrastA/production-results/3JUDR1D0D6G4MF9B8WR1AFVRI74Q28-35GCEFQ6I6D5794FPUTL827E7UDZ3O.json,1,standard,FALSE
4395.000000018630,flower,NA,165431,13,C,4,unknown,23,/Users/dan/Projects/callab/tunkel/Negation2.0/Experiment2/contrastA/production-results/3JUDR1D0D6G4MF9B8WR1AFVRI74Q28-35GCEFQ6I6D5794FPUTL827E7UDZ3O.json,1,standard,FALSE
2915.7300000079000,fork,NA,169701,14,10,G,known,23,/Users/dan/Projects/callab/tunkel/Negation2.0/Experiment2/contrastA/production-results/3JUDR1D0D6G4MF9B8WR1AFVRI74Q28-35GCEFQ6I6D5794FPUTL827E7UDZ3O.json,1,standard,FALSE
8176.054999988990,art,NA,180983,15,N,9,unknown,23,/Users/dan/Projects/callab/tunkel/Negation2.0/Experiment2/contrastA/production-results/3JUDR1D0D6G4MF9B8WR1AFVRI74Q28-35GCEFQ6I6D5794FPUTL827E7UDZ3O.json,1,standard,FALSE
2894.635000033300,art,NA,184734,16,E,9,unknown,23,/Users/dan/Projects/callab/tunkel/Negation2.0/Experiment2/contrastA/production-results/3JUDR1D0D6G4MF9B8WR1AFVRI74Q28-35GCEFQ6I6D5794FPUTL827E7UDZ3O.json,2,standard,FALSE
4465.640000009440,art,NA,190554,17,M,9,unknown,23,/Users/dan/Projects/callab/tunkel/Negation2.0/Experiment2/contrastA/production-results/3JUDR1D0D6G4MF9B8WR1AFVRI74Q28-35GCEFQ6I6D5794FPUTL827E7UDZ3O.json,3,standard,FALSE
1989.2049999907600,cat,NA,193899,18,9,B,known,23,/Users/dan/Projects/callab/tunkel/Negation2.0/Experiment2/contrastA/production-results/3JUDR1D0D6G4MF9B8WR1AFVRI74Q28-35GCEFQ6I6D5794FPUTL827E7UDZ3O.json,1,switch,FALSE
429213.9400000020,impatiens,NA,2270875,3,L,11,unknown,24,/Users/dan/Projects/callab/tunkel/Negation2.0/Experiment2/contrastB/production-results/3NFWQRSHVE3XAKR9TV1W0KLELO1FGN-3W92K5RLWV6RC4M92GSB2TS2XFZ5VL.json,1,standard,FALSE
6777.090000003110,dice,NA,2278762,4,15,H,known,24,/Users/dan/Projects/callab/tunkel/Negation2.0/Experiment2/contrastB/production-results/3NFWQRSHVE3XAKR9TV1W0KLELO1FGN-3W92K5RLWV6RC4M92GSB2TS2XFZ5VL.json,1,standard,FALSE
10457.494999995500,cone,NA,2291826,5,A,12,unknown,24,/Users/dan/Projects/callab/tunkel/Negation2.0/Experiment2/contrastB/production-results/3NFWQRSHVE3XAKR9TV1W0KLELO1FGN-3W92K5RLWV6RC4M92GSB2TS2XFZ5VL.json,1,standard,FALSE
7165.075000004380,tree,NA,2301098,6,2,J,known,24,/Users/dan/Projects/callab/tunkel/Negation2.0/Experiment2/contrastB/production-results/3NFWQRSHVE3XAKR9TV1W0KLELO1FGN-3W92K5RLWV6RC4M92GSB2TS2XFZ5VL.json,1,standard,FALSE
290821.6349999930,transport,NA,2594442,7,M,5,unknown,24,/Users/dan/Projects/callab/tunkel/Negation2.0/Experiment2/contrastB/production-results/3NFWQRSHVE3XAKR9TV1W0KLELO1FGN-3W92K5RLWV6RC4M92GSB2TS2XFZ5VL.json,1,standard,FALSE
16303.899999999000,mould,NA,2612353,8,K,5,unknown,24,/Users/dan/Projects/callab/tunkel/Negation2.0/Experiment2/contrastB/production-results/3NFWQRSHVE3XAKR9TV1W0KLELO1FGN-3W92K5RLWV6RC4M92GSB2TS2XFZ5VL.json,2,standard,FALSE
7510.030000004920,mould,NA,2621969,9,G,5,unknown,24,/Users/dan/Projects/callab/tunkel/Negation2.0/Experiment2/contrastB/production-results/3NFWQRSHVE3XAKR9TV1W0KLELO1FGN-3W92K5RLWV6RC4M92GSB2TS2XFZ5VL.json,3,standard,FALSE
7179.040000002830,insect,NA,2630754,10,5,N,known,24,/Users/dan/Projects/callab/tunkel/Negation2.0/Experiment2/contrastB/production-results/3NFWQRSHVE3XAKR9TV1W0KLELO1FGN-3W92K5RLWV6RC4M92GSB2TS2XFZ5VL.json,1,switch,FALSE
4245.949999996460,shoe,NA,2637106,11,8,C,known,24,/Users/dan/Projects/callab/tunkel/Negation2.0/Experiment2/contrastB/production-results/3NFWQRSHVE3XAKR9TV1W0KLELO1FGN-3W92K5RLWV6RC4M92GSB2TS2XFZ5VL.json,1,standard,FALSE
33529.974999997800,sculpture,NA,2671994,12,D,7,unknown,24,/Users/dan/Projects/callab/tunkel/Negation2.0/Experiment2/contrastB/production-results/3NFWQRSHVE3XAKR9TV1W0KLELO1FGN-3W92K5RLWV6RC4M92GSB2TS2XFZ5VL.json,1,standard,FALSE
121718.45500000200,plastic,NA,2795818,13,I,9,unknown,24,/Users/dan/Projects/callab/tunkel/Negation2.0/Experiment2/contrastB/production-results/3NFWQRSHVE3XAKR9TV1W0KLELO1FGN-3W92K5RLWV6RC4M92GSB2TS2XFZ5VL.json,1,standard,FALSE
5025.67499999702,chair,NA,2801698,14,1,E,known,24,/Users/dan/Projects/callab/tunkel/Negation2.0/Experiment2/contrastB/production-results/3NFWQRSHVE3XAKR9TV1W0KLELO1FGN-3W92K5RLWV6RC4M92GSB2TS2XFZ5VL.json,1,standard,FALSE
7572.090000001710,cat,NA,2810626,15,16,B,known,24,/Users/dan/Projects/callab/tunkel/Negation2.0/Experiment2/contrastB/production-results/3NFWQRSHVE3XAKR9TV1W0KLELO1FGN-3W92K5RLWV6RC4M92GSB2TS2XFZ5VL.json,1,standard,FALSE
4718.3149999980800,cat,NA,2816201,16,10,B,known,24,/Users/dan/Projects/callab/tunkel/Negation2.0/Experiment2/contrastB/production-results/3NFWQRSHVE3XAKR9TV1W0KLELO1FGN-3W92K5RLWV6RC4M92GSB2TS2XFZ5VL.json,2,standard,FALSE
33024.185000002400,cat,NA,2850641,17,6,B,known,24,/Users/dan/Projects/callab/tunkel/Negation2.0/Experiment2/contrastB/production-results/3NFWQRSHVE3XAKR9TV1W0KLELO1FGN-3W92K5RLWV6RC4M92GSB2TS2XFZ5VL.json,3,standard,FALSE
40818.28500000110,cape,NA,2895433,18,B,3,unknown,24,/Users/dan/Projects/callab/tunkel/Negation2.0/Experiment2/contrastB/production-results/3NFWQRSHVE3XAKR9TV1W0KLELO1FGN-3W92K5RLWV6RC4M92GSB2TS2XFZ5VL.json,1,switch,FALSE
11369.490000011900,rubber bulb,NA,88511,3,C,10,unknown,25,/Users/dan/Projects/callab/tunkel/Negation2.0/Experiment2/contrastB/production-results/3ZLW647WALKCFE39ALF5X72G8FR32J-3M1CVSFP61UWD229BDPI4H9G81KQAH.json,1,standard,FALSE
13231.700000003900,jewelry ring,NA,104349,4,12,F,known,25,/Users/dan/Projects/callab/tunkel/Negation2.0/Experiment2/contrastB/production-results/3ZLW647WALKCFE39ALF5X72G8FR32J-3M1CVSFP61UWD229BDPI4H9G81KQAH.json,1,standard,FALSE
6240.189999982250,not a pen,NA,111444,5,D,3,unknown,25,/Users/dan/Projects/callab/tunkel/Negation2.0/Experiment2/contrastB/production-results/3ZLW647WALKCFE39ALF5X72G8FR32J-3M1CVSFP61UWD229BDPI4H9G81KQAH.json,1,standard,TRUE
3625.62499998603,chair,NA,115926,6,6,E,known,25,/Users/dan/Projects/callab/tunkel/Negation2.0/Experiment2/contrastB/production-results/3ZLW647WALKCFE39ALF5X72G8FR32J-3M1CVSFP61UWD229BDPI4H9G81KQAH.json,1,standard,FALSE
7173.340000008470,not the cat,NA,126204,7,B,16,unknown,25,/Users/dan/Projects/callab/tunkel/Negation2.0/Experiment2/contrastB/production-results/3ZLW647WALKCFE39ALF5X72G8FR32J-3M1CVSFP61UWD229BDPI4H9G81KQAH.json,1,standard,TRUE
5962.845000001840,not the die,NA,133771,8,H,16,unknown,25,/Users/dan/Projects/callab/tunkel/Negation2.0/Experiment2/contrastB/production-results/3ZLW647WALKCFE39ALF5X72G8FR32J-3M1CVSFP61UWD229BDPI4H9G81KQAH.json,2,standard,TRUE
4926.145000004910,not the tree,NA,141804,9,J,16,unknown,25,/Users/dan/Projects/callab/tunkel/Negation2.0/Experiment2/contrastB/production-results/3ZLW647WALKCFE39ALF5X72G8FR32J-3M1CVSFP61UWD229BDPI4H9G81KQAH.json,3,standard,TRUE
3410.054999985730,flower,NA,147321,10,16,L,known,25,/Users/dan/Projects/callab/tunkel/Negation2.0/Experiment2/contrastB/production-results/3ZLW647WALKCFE39ALF5X72G8FR32J-3M1CVSFP61UWD229BDPI4H9G81KQAH.json,1,switch,FALSE
3671.9499999890100,crab,NA,152100,11,4,N,known,25,/Users/dan/Projects/callab/tunkel/Negation2.0/Experiment2/contrastB/production-results/3ZLW647WALKCFE39ALF5X72G8FR32J-3M1CVSFP61UWD229BDPI4H9G81KQAH.json,1,standard,FALSE
4566.940000018800,not the car,NA,158523,12,I,2,unknown,25,/Users/dan/Projects/callab/tunkel/Negation2.0/Experiment2/contrastB/production-results/3ZLW647WALKCFE39ALF5X72G8FR32J-3M1CVSFP61UWD229BDPI4H9G81KQAH.json,1,standard,TRUE
4236.899999988960,blocks,NA,163615,13,A,15,unknown,25,/Users/dan/Projects/callab/tunkel/Negation2.0/Experiment2/contrastB/production-results/3ZLW647WALKCFE39ALF5X72G8FR32J-3M1CVSFP61UWD229BDPI4H9G81KQAH.json,1,standard,FALSE
2767.905000015160,fork,NA,168237,14,8,G,known,25,/Users/dan/Projects/callab/tunkel/Negation2.0/Experiment2/contrastB/production-results/3ZLW647WALKCFE39ALF5X72G8FR32J-3M1CVSFP61UWD229BDPI4H9G81KQAH.json,1,standard,FALSE
3729.014999989890,butterfly,NA,173073,15,11,K,known,25,/Users/dan/Projects/callab/tunkel/Negation2.0/Experiment2/contrastB/production-results/3ZLW647WALKCFE39ALF5X72G8FR32J-3M1CVSFP61UWD229BDPI4H9G81KQAH.json,1,standard,FALSE
3887.399999977790,butterfly,NA,179065,16,7,K,known,25,/Users/dan/Projects/callab/tunkel/Negation2.0/Experiment2/contrastB/production-results/3ZLW647WALKCFE39ALF5X72G8FR32J-3M1CVSFP61UWD229BDPI4H9G81KQAH.json,2,standard,FALSE
11697.205000004000,butterfly,NA,192618,17,9,K,known,25,/Users/dan/Projects/callab/tunkel/Negation2.0/Experiment2/contrastB/production-results/3ZLW647WALKCFE39ALF5X72G8FR32J-3M1CVSFP61UWD229BDPI4H9G81KQAH.json,3,standard,FALSE
9622.9099999764,not the butterfly,NA,204097,18,K,5,unknown,25,/Users/dan/Projects/callab/tunkel/Negation2.0/Experiment2/contrastB/production-results/3ZLW647WALKCFE39ALF5X72G8FR32J-3M1CVSFP61UWD229BDPI4H9G81KQAH.json,1,switch,TRUE
8191.649999997030,art,NA,165150,3,N,5,unknown,26,/Users/dan/Projects/callab/tunkel/Negation2.0/Experiment2/contrastB/production-results/3ZLW647WALKCFE39ALF5X72G8FR32J-3AZHRG4CU5985OYPL0GT234SPNV301.json,1,standard,FALSE
8446.340000002240,fruit,NA,175456,4,4,A,known,26,/Users/dan/Projects/callab/tunkel/Negation2.0/Experiment2/contrastB/production-results/3ZLW647WALKCFE39ALF5X72G8FR32J-3AZHRG4CU5985OYPL0GT234SPNV301.json,1,standard,FALSE
8460.340000001450,art,NA,185775,5,J,2,unknown,26,/Users/dan/Projects/callab/tunkel/Negation2.0/Experiment2/contrastB/production-results/3ZLW647WALKCFE39ALF5X72G8FR32J-3AZHRG4CU5985OYPL0GT234SPNV301.json,1,standard,FALSE
8969.910000003440,jewelry,NA,196605,6,1,F,known,26,/Users/dan/Projects/callab/tunkel/Negation2.0/Experiment2/contrastB/production-results/3ZLW647WALKCFE39ALF5X72G8FR32J-3AZHRG4CU5985OYPL0GT234SPNV301.json,1,standard,FALSE
12986.925000001100,toy,NA,211698,7,L,16,unknown,26,/Users/dan/Projects/callab/tunkel/Negation2.0/Experiment2/contrastB/production-results/3ZLW647WALKCFE39ALF5X72G8FR32J-3AZHRG4CU5985OYPL0GT234SPNV301.json,1,standard,FALSE
13893.624999997000,toy,NA,226948,8,D,16,unknown,26,/Users/dan/Projects/callab/tunkel/Negation2.0/Experiment2/contrastB/production-results/3ZLW647WALKCFE39ALF5X72G8FR32J-3AZHRG4CU5985OYPL0GT234SPNV301.json,2,standard,FALSE
15843.769999999500,art,NA,245898,9,M,16,unknown,26,/Users/dan/Projects/callab/tunkel/Negation2.0/Experiment2/contrastB/production-results/3ZLW647WALKCFE39ALF5X72G8FR32J-3AZHRG4CU5985OYPL0GT234SPNV301.json,3,standard,FALSE
12778.259999999100,furniture,NA,259534,10,16,E,known,26,/Users/dan/Projects/callab/tunkel/Negation2.0/Experiment2/contrastB/production-results/3ZLW647WALKCFE39ALF5X72G8FR32J-3AZHRG4CU5985OYPL0GT234SPNV301.json,1,switch,FALSE
9265.125000001750,animal,NA,270906,11,8,B,known,26,/Users/dan/Projects/callab/tunkel/Negation2.0/Experiment2/contrastB/production-results/3ZLW647WALKCFE39ALF5X72G8FR32J-3AZHRG4CU5985OYPL0GT234SPNV301.json,1,standard,FALSE
13827.414999999700,art,NA,286842,12,H,15,unknown,26,/Users/dan/Projects/callab/tunkel/Negation2.0/Experiment2/contrastB/production-results/3ZLW647WALKCFE39ALF5X72G8FR32J-3AZHRG4CU5985OYPL0GT234SPNV301.json,1,standard,FALSE
6517.3049999976100,art,NA,294718,13,C,7,unknown,26,/Users/dan/Projects/callab/tunkel/Negation2.0/Experiment2/contrastB/production-results/3ZLW647WALKCFE39ALF5X72G8FR32J-3AZHRG4CU5985OYPL0GT234SPNV301.json,1,standard,FALSE
7313.904999999100,insect,NA,303890,14,12,K,known,26,/Users/dan/Projects/callab/tunkel/Negation2.0/Experiment2/contrastB/production-results/3ZLW647WALKCFE39ALF5X72G8FR32J-3AZHRG4CU5985OYPL0GT234SPNV301.json,1,standard,FALSE
8485.764999997630,automobile,NA,313484,15,10,I,known,26,/Users/dan/Projects/callab/tunkel/Negation2.0/Experiment2/contrastB/production-results/3ZLW647WALKCFE39ALF5X72G8FR32J-3AZHRG4CU5985OYPL0GT234SPNV301.json,1,standard,FALSE
13770.769999999200,transportation,NA,329112,16,11,I,known,26,/Users/dan/Projects/callab/tunkel/Negation2.0/Experiment2/contrastB/production-results/3ZLW647WALKCFE39ALF5X72G8FR32J-3AZHRG4CU5985OYPL0GT234SPNV301.json,2,standard,FALSE
4955.129999998430,car,NA,335926,17,6,I,known,26,/Users/dan/Projects/callab/tunkel/Negation2.0/Experiment2/contrastB/production-results/3ZLW647WALKCFE39ALF5X72G8FR32J-3AZHRG4CU5985OYPL0GT234SPNV301.json,3,standard,FALSE
7593.570000000940,art,NA,345377,18,I,9,unknown,26,/Users/dan/Projects/callab/tunkel/Negation2.0/Experiment2/contrastB/production-results/3ZLW647WALKCFE39ALF5X72G8FR32J-3AZHRG4CU5985OYPL0GT234SPNV301.json,1,switch,FALSE
2887.834999943150,fruit,NA,78328,3,6,A,known,27,/Users/dan/Projects/callab/tunkel/Negation2.0/Experiment2/contrastA/production-results/338GLSUI43000P00OVVDPY4H9ZUSFJ-3Z9WI9EOZ0DPCMCS4EFDPHKBMQIKHU.json,1,standard,FALSE
7151.285000145440,spiky item,NA,86590,4,E,1,unknown,27,/Users/dan/Projects/callab/tunkel/Negation2.0/Experiment2/contrastA/production-results/338GLSUI43000P00OVVDPY4H9ZUSFJ-3Z9WI9EOZ0DPCMCS4EFDPHKBMQIKHU.json,1,standard,FALSE
3080.104999942710,vase,NA,90530,5,N,2,unknown,27,/Users/dan/Projects/callab/tunkel/Negation2.0/Experiment2/contrastA/production-results/338GLSUI43000P00OVVDPY4H9ZUSFJ-3Z9WI9EOZ0DPCMCS4EFDPHKBMQIKHU.json,1,standard,FALSE
508822.6349998730,dice,NA,602463,6,10,H,known,27,/Users/dan/Projects/callab/tunkel/Negation2.0/Experiment2/contrastA/production-results/338GLSUI43000P00OVVDPY4H9ZUSFJ-3Z9WI9EOZ0DPCMCS4EFDPHKBMQIKHU.json,1,standard,FALSE
2263.0849999841300,tree,NA,606591,7,3,J,known,27,/Users/dan/Projects/callab/tunkel/Negation2.0/Experiment2/contrastA/production-results/338GLSUI43000P00OVVDPY4H9ZUSFJ-3Z9WI9EOZ0DPCMCS4EFDPHKBMQIKHU.json,1,standard,FALSE
2696.914999978620,tree,NA,612397,8,8,J,known,27,/Users/dan/Projects/callab/tunkel/Negation2.0/Experiment2/contrastA/production-results/338GLSUI43000P00OVVDPY4H9ZUSFJ-3Z9WI9EOZ0DPCMCS4EFDPHKBMQIKHU.json,2,standard,FALSE
3180.6900000665300,tree,NA,617437,9,12,J,known,27,/Users/dan/Projects/callab/tunkel/Negation2.0/Experiment2/contrastA/production-results/338GLSUI43000P00OVVDPY4H9ZUSFJ-3Z9WI9EOZ0DPCMCS4EFDPHKBMQIKHU.json,3,standard,FALSE
5386.149999918420,art,NA,624180,10,J,5,unknown,27,/Users/dan/Projects/callab/tunkel/Negation2.0/Experiment2/contrastA/production-results/338GLSUI43000P00OVVDPY4H9ZUSFJ-3Z9WI9EOZ0DPCMCS4EFDPHKBMQIKHU.json,1,switch,FALSE
4676.614999771120,fluffly,NA,630474,11,C,4,unknown,27,/Users/dan/Projects/callab/tunkel/Negation2.0/Experiment2/contrastA/production-results/338GLSUI43000P00OVVDPY4H9ZUSFJ-3Z9WI9EOZ0DPCMCS4EFDPHKBMQIKHU.json,1,standard,FALSE
3958.3449999336200,utensil,NA,637544,12,11,G,known,27,/Users/dan/Projects/callab/tunkel/Negation2.0/Experiment2/contrastA/production-results/338GLSUI43000P00OVVDPY4H9ZUSFJ-3Z9WI9EOZ0DPCMCS4EFDPHKBMQIKHU.json,1,standard,FALSE
5085.660000098870,art,NA,644245,13,D,7,unknown,27,/Users/dan/Projects/callab/tunkel/Negation2.0/Experiment2/contrastA/production-results/338GLSUI43000P00OVVDPY4H9ZUSFJ-3Z9WI9EOZ0DPCMCS4EFDPHKBMQIKHU.json,1,standard,FALSE
3932.0349998306500,insect,NA,649539,14,16,K,known,27,/Users/dan/Projects/callab/tunkel/Negation2.0/Experiment2/contrastA/production-results/338GLSUI43000P00OVVDPY4H9ZUSFJ-3Z9WI9EOZ0DPCMCS4EFDPHKBMQIKHU.json,1,standard,FALSE
4184.385000029580,plastic,NA,656841,15,L,9,unknown,27,/Users/dan/Projects/callab/tunkel/Negation2.0/Experiment2/contrastA/production-results/338GLSUI43000P00OVVDPY4H9ZUSFJ-3Z9WI9EOZ0DPCMCS4EFDPHKBMQIKHU.json,1,standard,FALSE
4225.1049999613300,plastic,NA,663175,16,B,9,unknown,27,/Users/dan/Projects/callab/tunkel/Negation2.0/Experiment2/contrastA/production-results/338GLSUI43000P00OVVDPY4H9ZUSFJ-3Z9WI9EOZ0DPCMCS4EFDPHKBMQIKHU.json,2,standard,FALSE
2995.264999801290,plastic,NA,667787,17,F,9,unknown,27,/Users/dan/Projects/callab/tunkel/Negation2.0/Experiment2/contrastA/production-results/338GLSUI43000P00OVVDPY4H9ZUSFJ-3Z9WI9EOZ0DPCMCS4EFDPHKBMQIKHU.json,3,standard,FALSE
2529.4449999928500,cup,NA,672182,18,9,M,known,27,/Users/dan/Projects/callab/tunkel/Negation2.0/Experiment2/contrastA/production-results/338GLSUI43000P00OVVDPY4H9ZUSFJ-3Z9WI9EOZ0DPCMCS4EFDPHKBMQIKHU.json,1,switch,FALSE
9135.000000009310,Toy,NA,185660,3,A,1,unknown,28,/Users/dan/Projects/callab/tunkel/Negation2.0/Experiment2/contrastB/production-results/3NFWQRSHVE3XAKR9TV1W0KLELO1FGN-3J2UYBXQQM1727L742ER96GCZEX064.json,1,standard,FALSE
5872.000000003030,Fork,NA,192389,4,2,G,known,28,/Users/dan/Projects/callab/tunkel/Negation2.0/Experiment2/contrastB/production-results/3NFWQRSHVE3XAKR9TV1W0KLELO1FGN-3J2UYBXQQM1727L742ER96GCZEX064.json,1,standard,FALSE
11755.999999993900,Paper,NA,205007,5,E,8,unknown,28,/Users/dan/Projects/callab/tunkel/Negation2.0/Experiment2/contrastB/production-results/3NFWQRSHVE3XAKR9TV1W0KLELO1FGN-3J2UYBXQQM1727L742ER96GCZEX064.json,1,standard,FALSE
10399.00000000490,Christmas tree,NA,216764,6,9,J,known,28,/Users/dan/Projects/callab/tunkel/Negation2.0/Experiment2/contrastB/production-results/3NFWQRSHVE3XAKR9TV1W0KLELO1FGN-3J2UYBXQQM1727L742ER96GCZEX064.json,1,standard,FALSE
14648.0000000156,Bread,NA,233515,7,F,3,unknown,28,/Users/dan/Projects/callab/tunkel/Negation2.0/Experiment2/contrastB/production-results/3NFWQRSHVE3XAKR9TV1W0KLELO1FGN-3J2UYBXQQM1727L742ER96GCZEX064.json,1,standard,FALSE
5370.000000024450,Bread,NA,240740,8,D,3,unknown,28,/Users/dan/Projects/callab/tunkel/Negation2.0/Experiment2/contrastB/production-results/3NFWQRSHVE3XAKR9TV1W0KLELO1FGN-3J2UYBXQQM1727L742ER96GCZEX064.json,2,standard,FALSE
6244.999999995340,Bread,NA,249589,9,C,3,unknown,28,/Users/dan/Projects/callab/tunkel/Negation2.0/Experiment2/contrastB/production-results/3NFWQRSHVE3XAKR9TV1W0KLELO1FGN-3J2UYBXQQM1727L742ER96GCZEX064.json,3,standard,FALSE
6798.000000009780,Butterfly,NA,258494,10,3,K,known,28,/Users/dan/Projects/callab/tunkel/Negation2.0/Experiment2/contrastB/production-results/3NFWQRSHVE3XAKR9TV1W0KLELO1FGN-3J2UYBXQQM1727L742ER96GCZEX064.json,1,switch,FALSE
8948.999999993250,Dice,NA,269548,11,7,H,known,28,/Users/dan/Projects/callab/tunkel/Negation2.0/Experiment2/contrastB/production-results/3NFWQRSHVE3XAKR9TV1W0KLELO1FGN-3J2UYBXQQM1727L742ER96GCZEX064.json,1,standard,FALSE
8255.999999993950,LolIPOP,NA,280412,12,N,10,unknown,28,/Users/dan/Projects/callab/tunkel/Negation2.0/Experiment2/contrastB/production-results/3NFWQRSHVE3XAKR9TV1W0KLELO1FGN-3J2UYBXQQM1727L742ER96GCZEX064.json,1,standard,FALSE
12559.999999997700,Instrument,NA,294077,13,L,12,unknown,28,/Users/dan/Projects/callab/tunkel/Negation2.0/Experiment2/contrastB/production-results/3NFWQRSHVE3XAKR9TV1W0KLELO1FGN-3J2UYBXQQM1727L742ER96GCZEX064.json,1,standard,FALSE
5190.000000002330,Cat,NA,300373,14,6,B,known,28,/Users/dan/Projects/callab/tunkel/Negation2.0/Experiment2/contrastB/production-results/3NFWQRSHVE3XAKR9TV1W0KLELO1FGN-3J2UYBXQQM1727L742ER96GCZEX064.json,1,standard,FALSE
3589.9999999965100,Cup,NA,305820,15,15,M,known,28,/Users/dan/Projects/callab/tunkel/Negation2.0/Experiment2/contrastB/production-results/3NFWQRSHVE3XAKR9TV1W0KLELO1FGN-3J2UYBXQQM1727L742ER96GCZEX064.json,1,standard,FALSE
3976.0000000242100,Cup,NA,311653,16,11,M,known,28,/Users/dan/Projects/callab/tunkel/Negation2.0/Experiment2/contrastB/production-results/3NFWQRSHVE3XAKR9TV1W0KLELO1FGN-3J2UYBXQQM1727L742ER96GCZEX064.json,2,standard,FALSE
5125,Cup,NA,318884,17,16,M,known,28,/Users/dan/Projects/callab/tunkel/Negation2.0/Experiment2/contrastB/production-results/3NFWQRSHVE3XAKR9TV1W0KLELO1FGN-3J2UYBXQQM1727L742ER96GCZEX064.json,3,standard,FALSE
9084.999999991850,Aeroplane toy,NA,328824,18,M,5,unknown,28,/Users/dan/Projects/callab/tunkel/Negation2.0/Experiment2/contrastB/production-results/3NFWQRSHVE3XAKR9TV1W0KLELO1FGN-3J2UYBXQQM1727L742ER96GCZEX064.json,1,switch,FALSE
