rt,response,locator,time_elapsed,trial,distractor,target,type,id,file,occurrence,switch,negation
3471.83,die,NA,112702,3,2,H,known,1,/Users/dan/Projects/callab/tunkel/Negation2.0/Experiment2/contrastA/production-results/338GLSUI43000P00OVVDPY4H9ZUSFJ-3G5W44VEU87BCQHHK8XV4H8A7RHGK5.json,1,standard,FALSE
15917.025,thing that looks like a closed plunger,NA,131726,4,C,10,unknown,1,/Users/dan/Projects/callab/tunkel/Negation2.0/Experiment2/contrastA/production-results/338GLSUI43000P00OVVDPY4H9ZUSFJ-3G5W44VEU87BCQHHK8XV4H8A7RHGK5.json,1,standard,FALSE
25029.83,circle donut thingy with marshmallow sticks in it,NA,158864,5,J,4,unknown,1,/Users/dan/Projects/callab/tunkel/Negation2.0/Experiment2/contrastA/production-results/338GLSUI43000P00OVVDPY4H9ZUSFJ-3G5W44VEU87BCQHHK8XV4H8A7RHGK5.json,1,standard,FALSE
7481.565,flutterbye,NA,167452,6,9,K,known,1,/Users/dan/Projects/callab/tunkel/Negation2.0/Experiment2/contrastA/production-results/338GLSUI43000P00OVVDPY4H9ZUSFJ-3G5W44VEU87BCQHHK8XV4H8A7RHGK5.json,1,standard,FALSE
16165.83,ring with large gem,NA,184726,7,16,F,known,1,/Users/dan/Projects/callab/tunkel/Negation2.0/Experiment2/contrastA/production-results/338GLSUI43000P00OVVDPY4H9ZUSFJ-3G5W44VEU87BCQHHK8XV4H8A7RHGK5.json,1,standard,FALSE
20889.725,ring with rounded ornament,NA,208722,8,11,F,known,1,/Users/dan/Projects/callab/tunkel/Negation2.0/Experiment2/contrastA/production-results/338GLSUI43000P00OVVDPY4H9ZUSFJ-3G5W44VEU87BCQHHK8XV4H8A7RHGK5.json,2,standard,FALSE
19562.62,ring with domed ornament,NA,229390,9,12,F,known,1,/Users/dan/Projects/callab/tunkel/Negation2.0/Experiment2/contrastA/production-results/338GLSUI43000P00OVVDPY4H9ZUSFJ-3G5W44VEU87BCQHHK8XV4H8A7RHGK5.json,3,standard,FALSE
9193.97,spiky mine balls,NA,240190,10,F,1,unknown,1,/Users/dan/Projects/callab/tunkel/Negation2.0/Experiment2/contrastA/production-results/338GLSUI43000P00OVVDPY4H9ZUSFJ-3G5W44VEU87BCQHHK8XV4H8A7RHGK5.json,1,switch,FALSE
12530.665,white iceberg looking thing,NA,254828,11,I,3,unknown,1,/Users/dan/Projects/callab/tunkel/Negation2.0/Experiment2/contrastA/production-results/338GLSUI43000P00OVVDPY4H9ZUSFJ-3G5W44VEU87BCQHHK8XV4H8A7RHGK5.json,1,standard,FALSE
10304.785,traditional wooden chair,NA,266237,12,6,E,known,1,/Users/dan/Projects/callab/tunkel/Negation2.0/Experiment2/contrastA/production-results/338GLSUI43000P00OVVDPY4H9ZUSFJ-3G5W44VEU87BCQHHK8XV4H8A7RHGK5.json,1,standard,FALSE
16801.305,block puzzle,NA,285643,13,B,15,unknown,1,/Users/dan/Projects/callab/tunkel/Negation2.0/Experiment2/contrastA/production-results/338GLSUI43000P00OVVDPY4H9ZUSFJ-3G5W44VEU87BCQHHK8XV4H8A7RHGK5.json,1,standard,FALSE
8513.49,glass mug,NA,295013,14,8,M,known,1,/Users/dan/Projects/callab/tunkel/Negation2.0/Experiment2/contrastA/production-results/338GLSUI43000P00OVVDPY4H9ZUSFJ-3G5W44VEU87BCQHHK8XV4H8A7RHGK5.json,1,standard,FALSE
31797.37,things that looks like a dumbbell with three points on each end,NA,328917,15,A,5,unknown,1,/Users/dan/Projects/callab/tunkel/Negation2.0/Experiment2/contrastA/production-results/338GLSUI43000P00OVVDPY4H9ZUSFJ-3G5W44VEU87BCQHHK8XV4H8A7RHGK5.json,1,standard,FALSE
68303.535,abstract dumbbell,NA,398329,16,D,5,unknown,1,/Users/dan/Projects/callab/tunkel/Negation2.0/Experiment2/contrastA/production-results/338GLSUI43000P00OVVDPY4H9ZUSFJ-3G5W44VEU87BCQHHK8XV4H8A7RHGK5.json,2,standard,FALSE
15170.345,bar with 3 points on each end,NA,416607,17,N,5,unknown,1,/Users/dan/Projects/callab/tunkel/Negation2.0/Experiment2/contrastA/production-results/338GLSUI43000P00OVVDPY4H9ZUSFJ-3G5W44VEU87BCQHHK8XV4H8A7RHGK5.json,3,standard,FALSE
6366.19,sunflower,NA,424081,18,5,L,known,1,/Users/dan/Projects/callab/tunkel/Negation2.0/Experiment2/contrastA/production-results/338GLSUI43000P00OVVDPY4H9ZUSFJ-3G5W44VEU87BCQHHK8XV4H8A7RHGK5.json,1,switch,FALSE
3498.71,blimp,NA,79406,3,I,16,unknown,2,/Users/dan/Projects/callab/tunkel/Negation2.0/Experiment2/contrastB/production-results/3NFWQRSHVE3XAKR9TV1W0KLELO1FGN-34FNN24DCNY8GYHE7RFV9SWWFW15YU.json,1,standard,FALSE
3583.63,apple,NA,84348,4,11,A,known,2,/Users/dan/Projects/callab/tunkel/Negation2.0/Experiment2/contrastB/production-results/3NFWQRSHVE3XAKR9TV1W0KLELO1FGN-34FNN24DCNY8GYHE7RFV9SWWFW15YU.json,1,standard,FALSE
3792.16,thing,NA,88998,5,N,5,unknown,2,/Users/dan/Projects/callab/tunkel/Negation2.0/Experiment2/contrastB/production-results/3NFWQRSHVE3XAKR9TV1W0KLELO1FGN-34FNN24DCNY8GYHE7RFV9SWWFW15YU.json,1,standard,FALSE
2798.16,die,NA,93407,6,9,H,known,2,/Users/dan/Projects/callab/tunkel/Negation2.0/Experiment2/contrastB/production-results/3NFWQRSHVE3XAKR9TV1W0KLELO1FGN-34FNN24DCNY8GYHE7RFV9SWWFW15YU.json,1,standard,FALSE
5563.125,spikes,NA,101578,7,F,4,unknown,2,/Users/dan/Projects/callab/tunkel/Negation2.0/Experiment2/contrastB/production-results/3NFWQRSHVE3XAKR9TV1W0KLELO1FGN-34FNN24DCNY8GYHE7RFV9SWWFW15YU.json,1,standard,FALSE
2678.3,spikes,NA,105367,8,E,4,unknown,2,/Users/dan/Projects/callab/tunkel/Negation2.0/Experiment2/contrastB/production-results/3NFWQRSHVE3XAKR9TV1W0KLELO1FGN-34FNN24DCNY8GYHE7RFV9SWWFW15YU.json,2,standard,FALSE
2088.385,spikes,NA,109314,9,L,4,unknown,2,/Users/dan/Projects/callab/tunkel/Negation2.0/Experiment2/contrastB/production-results/3NFWQRSHVE3XAKR9TV1W0KLELO1FGN-34FNN24DCNY8GYHE7RFV9SWWFW15YU.json,3,standard,FALSE
2043.45,mug,NA,113217,10,4,M,known,2,/Users/dan/Projects/callab/tunkel/Negation2.0/Experiment2/contrastB/production-results/3NFWQRSHVE3XAKR9TV1W0KLELO1FGN-34FNN24DCNY8GYHE7RFV9SWWFW15YU.json,1,switch,FALSE
2154.08,shoe,NA,117481,11,1,C,known,2,/Users/dan/Projects/callab/tunkel/Negation2.0/Experiment2/contrastB/production-results/3NFWQRSHVE3XAKR9TV1W0KLELO1FGN-34FNN24DCNY8GYHE7RFV9SWWFW15YU.json,1,standard,FALSE
2910.75,thing,NA,121248,12,G,7,unknown,2,/Users/dan/Projects/callab/tunkel/Negation2.0/Experiment2/contrastB/production-results/3NFWQRSHVE3XAKR9TV1W0KLELO1FGN-34FNN24DCNY8GYHE7RFV9SWWFW15YU.json,1,standard,FALSE
3121.87,thing,NA,125728,13,B,2,unknown,2,/Users/dan/Projects/callab/tunkel/Negation2.0/Experiment2/contrastB/production-results/3NFWQRSHVE3XAKR9TV1W0KLELO1FGN-34FNN24DCNY8GYHE7RFV9SWWFW15YU.json,1,standard,FALSE
2247.655,butterfly,NA,129585,14,10,K,known,2,/Users/dan/Projects/callab/tunkel/Negation2.0/Experiment2/contrastB/production-results/3NFWQRSHVE3XAKR9TV1W0KLELO1FGN-34FNN24DCNY8GYHE7RFV9SWWFW15YU.json,1,standard,FALSE
1548.545,pen,NA,131993,15,12,D,known,2,/Users/dan/Projects/callab/tunkel/Negation2.0/Experiment2/contrastB/production-results/3NFWQRSHVE3XAKR9TV1W0KLELO1FGN-34FNN24DCNY8GYHE7RFV9SWWFW15YU.json,1,standard,FALSE
1532.535,pen,NA,134632,16,15,D,known,2,/Users/dan/Projects/callab/tunkel/Negation2.0/Experiment2/contrastB/production-results/3NFWQRSHVE3XAKR9TV1W0KLELO1FGN-34FNN24DCNY8GYHE7RFV9SWWFW15YU.json,2,standard,FALSE
1327.315,pen,NA,139064,17,8,D,known,2,/Users/dan/Projects/callab/tunkel/Negation2.0/Experiment2/contrastB/production-results/3NFWQRSHVE3XAKR9TV1W0KLELO1FGN-34FNN24DCNY8GYHE7RFV9SWWFW15YU.json,3,standard,FALSE
1886.94,thing,NA,142560,18,D,3,unknown,2,/Users/dan/Projects/callab/tunkel/Negation2.0/Experiment2/contrastB/production-results/3NFWQRSHVE3XAKR9TV1W0KLELO1FGN-34FNN24DCNY8GYHE7RFV9SWWFW15YU.json,1,switch,FALSE
3685,Flower,NA,121279,3,11,L,known,3,/Users/dan/Projects/callab/tunkel/Negation2.0/Experiment2/contrastA/production-results/338GLSUI43000P00OVVDPY4H9ZUSFJ-35LDD5557BTB40D3VBVQHMS73CRMKF.json,1,standard,FALSE
11081,Squeezing tool,NA,135465,4,M,10,unknown,3,/Users/dan/Projects/callab/tunkel/Negation2.0/Experiment2/contrastA/production-results/338GLSUI43000P00OVVDPY4H9ZUSFJ-35LDD5557BTB40D3VBVQHMS73CRMKF.json,1,standard,FALSE
10242,Strange shape,NA,148311,5,I,5,unknown,3,/Users/dan/Projects/callab/tunkel/Negation2.0/Experiment2/contrastA/production-results/338GLSUI43000P00OVVDPY4H9ZUSFJ-35LDD5557BTB40D3VBVQHMS73CRMKF.json,1,standard,FALSE
2787,Tree,NA,152458,6,4,J,known,3,/Users/dan/Projects/callab/tunkel/Negation2.0/Experiment2/contrastA/production-results/338GLSUI43000P00OVVDPY4H9ZUSFJ-35LDD5557BTB40D3VBVQHMS73CRMKF.json,1,standard,FALSE
2470,Cat,NA,158039,7,8,B,known,3,/Users/dan/Projects/callab/tunkel/Negation2.0/Experiment2/contrastA/production-results/338GLSUI43000P00OVVDPY4H9ZUSFJ-35LDD5557BTB40D3VBVQHMS73CRMKF.json,1,standard,FALSE
3063,Cat,NA,161960,8,6,B,known,3,/Users/dan/Projects/callab/tunkel/Negation2.0/Experiment2/contrastA/production-results/338GLSUI43000P00OVVDPY4H9ZUSFJ-35LDD5557BTB40D3VBVQHMS73CRMKF.json,2,standard,FALSE
3017,Cat,NA,167080,9,7,B,known,3,/Users/dan/Projects/callab/tunkel/Negation2.0/Experiment2/contrastA/production-results/338GLSUI43000P00OVVDPY4H9ZUSFJ-35LDD5557BTB40D3VBVQHMS73CRMKF.json,3,standard,FALSE
6097,Toy,NA,174280,10,B,15,unknown,3,/Users/dan/Projects/callab/tunkel/Negation2.0/Experiment2/contrastA/production-results/338GLSUI43000P00OVVDPY4H9ZUSFJ-35LDD5557BTB40D3VBVQHMS73CRMKF.json,1,switch,FALSE
10081,Oval shape,NA,185714,11,K,16,unknown,3,/Users/dan/Projects/callab/tunkel/Negation2.0/Experiment2/contrastA/production-results/338GLSUI43000P00OVVDPY4H9ZUSFJ-35LDD5557BTB40D3VBVQHMS73CRMKF.json,1,standard,FALSE
3154,Chair,NA,189721,12,3,E,known,3,/Users/dan/Projects/callab/tunkel/Negation2.0/Experiment2/contrastA/production-results/338GLSUI43000P00OVVDPY4H9ZUSFJ-35LDD5557BTB40D3VBVQHMS73CRMKF.json,1,standard,FALSE
8520,Spiked circle,NA,200844,13,A,1,unknown,3,/Users/dan/Projects/callab/tunkel/Negation2.0/Experiment2/contrastA/production-results/338GLSUI43000P00OVVDPY4H9ZUSFJ-35LDD5557BTB40D3VBVQHMS73CRMKF.json,1,standard,FALSE
3306,Fork,NA,206254,14,9,G,known,3,/Users/dan/Projects/callab/tunkel/Negation2.0/Experiment2/contrastA/production-results/338GLSUI43000P00OVVDPY4H9ZUSFJ-35LDD5557BTB40D3VBVQHMS73CRMKF.json,1,standard,FALSE
6902,Spinning thing,NA,215259,15,N,12,unknown,3,/Users/dan/Projects/callab/tunkel/Negation2.0/Experiment2/contrastA/production-results/338GLSUI43000P00OVVDPY4H9ZUSFJ-35LDD5557BTB40D3VBVQHMS73CRMKF.json,1,standard,FALSE
6110,Spinning thing,NA,223223,16,D,12,unknown,3,/Users/dan/Projects/callab/tunkel/Negation2.0/Experiment2/contrastA/production-results/338GLSUI43000P00OVVDPY4H9ZUSFJ-35LDD5557BTB40D3VBVQHMS73CRMKF.json,2,standard,FALSE
2773,Spinning thing,NA,227349,17,C,12,unknown,3,/Users/dan/Projects/callab/tunkel/Negation2.0/Experiment2/contrastA/production-results/338GLSUI43000P00OVVDPY4H9ZUSFJ-35LDD5557BTB40D3VBVQHMS73CRMKF.json,3,standard,FALSE
3610,Dice,NA,232061,18,12,H,known,3,/Users/dan/Projects/callab/tunkel/Negation2.0/Experiment2/contrastA/production-results/338GLSUI43000P00OVVDPY4H9ZUSFJ-35LDD5557BTB40D3VBVQHMS73CRMKF.json,1,switch,FALSE
9465.255,Not a shoe,NA,162887,3,C,5,unknown,4,/Users/dan/Projects/callab/tunkel/Negation2.0/Experiment2/contrastB/production-results/3ZLW647WALKCFE39ALF5X72G8FR32J-39ASUFLU6YWJCCKXDWMWU8V0QJFXEQ.json,1,standard,FALSE
7474.03,cup,NA,171217,4,15,M,known,4,/Users/dan/Projects/callab/tunkel/Negation2.0/Experiment2/contrastB/production-results/3ZLW647WALKCFE39ALF5X72G8FR32J-39ASUFLU6YWJCCKXDWMWU8V0QJFXEQ.json,1,standard,FALSE
9578.245,not butterfly,NA,182407,5,K,9,unknown,4,/Users/dan/Projects/callab/tunkel/Negation2.0/Experiment2/contrastB/production-results/3ZLW647WALKCFE39ALF5X72G8FR32J-39ASUFLU6YWJCCKXDWMWU8V0QJFXEQ.json,1,standard,TRUE
5794.56,die,NA,189311,6,2,H,known,4,/Users/dan/Projects/callab/tunkel/Negation2.0/Experiment2/contrastB/production-results/3ZLW647WALKCFE39ALF5X72G8FR32J-39ASUFLU6YWJCCKXDWMWU8V0QJFXEQ.json,1,standard,FALSE
6784.82,not a tree,NA,197706,7,J,4,unknown,4,/Users/dan/Projects/callab/tunkel/Negation2.0/Experiment2/contrastB/production-results/3ZLW647WALKCFE39ALF5X72G8FR32J-39ASUFLU6YWJCCKXDWMWU8V0QJFXEQ.json,1,standard,TRUE
6696.045,not a ring,NA,205760,8,F,4,unknown,4,/Users/dan/Projects/callab/tunkel/Negation2.0/Experiment2/contrastB/production-results/3ZLW647WALKCFE39ALF5X72G8FR32J-39ASUFLU6YWJCCKXDWMWU8V0QJFXEQ.json,2,standard,TRUE
5354.035,not a pen,NA,212973,9,D,4,unknown,4,/Users/dan/Projects/callab/tunkel/Negation2.0/Experiment2/contrastB/production-results/3ZLW647WALKCFE39ALF5X72G8FR32J-39ASUFLU6YWJCCKXDWMWU8V0QJFXEQ.json,3,standard,TRUE
3932.18,apple,NA,219517,10,4,A,known,4,/Users/dan/Projects/callab/tunkel/Negation2.0/Experiment2/contrastB/production-results/3ZLW647WALKCFE39ALF5X72G8FR32J-39ASUFLU6YWJCCKXDWMWU8V0QJFXEQ.json,1,switch,FALSE
3781.875,flower,NA,225410,11,16,L,known,4,/Users/dan/Projects/callab/tunkel/Negation2.0/Experiment2/contrastB/production-results/3ZLW647WALKCFE39ALF5X72G8FR32J-39ASUFLU6YWJCCKXDWMWU8V0QJFXEQ.json,1,standard,FALSE
6214.39,not chair,NA,232985,12,E,8,unknown,4,/Users/dan/Projects/callab/tunkel/Negation2.0/Experiment2/contrastB/production-results/3ZLW647WALKCFE39ALF5X72G8FR32J-39ASUFLU6YWJCCKXDWMWU8V0QJFXEQ.json,1,standard,TRUE
6393.785,not crab,NA,242488,13,N,11,unknown,4,/Users/dan/Projects/callab/tunkel/Negation2.0/Experiment2/contrastB/production-results/3ZLW647WALKCFE39ALF5X72G8FR32J-39ASUFLU6YWJCCKXDWMWU8V0QJFXEQ.json,1,standard,TRUE
3563.215,fork,NA,247662,14,12,G,known,4,/Users/dan/Projects/callab/tunkel/Negation2.0/Experiment2/contrastB/production-results/3ZLW647WALKCFE39ALF5X72G8FR32J-39ASUFLU6YWJCCKXDWMWU8V0QJFXEQ.json,1,standard,FALSE
3091.72,cat,NA,252614,15,6,B,known,4,/Users/dan/Projects/callab/tunkel/Negation2.0/Experiment2/contrastB/production-results/3ZLW647WALKCFE39ALF5X72G8FR32J-39ASUFLU6YWJCCKXDWMWU8V0QJFXEQ.json,1,standard,FALSE
1929.785,cat,NA,256402,16,3,B,known,4,/Users/dan/Projects/callab/tunkel/Negation2.0/Experiment2/contrastB/production-results/3ZLW647WALKCFE39ALF5X72G8FR32J-39ASUFLU6YWJCCKXDWMWU8V0QJFXEQ.json,2,standard,FALSE
1919.08,cat,NA,260930,17,1,B,known,4,/Users/dan/Projects/callab/tunkel/Negation2.0/Experiment2/contrastB/production-results/3ZLW647WALKCFE39ALF5X72G8FR32J-39ASUFLU6YWJCCKXDWMWU8V0QJFXEQ.json,3,standard,FALSE
5441.635,not cat,NA,267731,18,B,10,unknown,4,/Users/dan/Projects/callab/tunkel/Negation2.0/Experiment2/contrastB/production-results/3ZLW647WALKCFE39ALF5X72G8FR32J-39ASUFLU6YWJCCKXDWMWU8V0QJFXEQ.json,1,switch,TRUE
2555.235,shoe,NA,111602,3,11,C,known,5,/Users/dan/Projects/callab/tunkel/Negation2.0/Experiment2/contrastA/production-results/3JUDR1D0D6G4MF9B8WR1AFVRI74Q28-39GHHAVOMGG0PQIF7MVIUDBU2WX4JU.json,1,standard,FALSE
8509.76,toy,NA,122745,4,E,12,unknown,5,/Users/dan/Projects/callab/tunkel/Negation2.0/Experiment2/contrastA/production-results/3JUDR1D0D6G4MF9B8WR1AFVRI74Q28-39GHHAVOMGG0PQIF7MVIUDBU2WX4JU.json,1,standard,FALSE
17777.61,art,NA,141906,5,F,7,unknown,5,/Users/dan/Projects/callab/tunkel/Negation2.0/Experiment2/contrastA/production-results/3JUDR1D0D6G4MF9B8WR1AFVRI74Q28-39GHHAVOMGG0PQIF7MVIUDBU2WX4JU.json,1,standard,FALSE
4163,fork,NA,147452,6,3,G,known,5,/Users/dan/Projects/callab/tunkel/Negation2.0/Experiment2/contrastA/production-results/3JUDR1D0D6G4MF9B8WR1AFVRI74Q28-39GHHAVOMGG0PQIF7MVIUDBU2WX4JU.json,1,standard,FALSE
2297.015,crab,NA,150612,7,9,N,known,5,/Users/dan/Projects/callab/tunkel/Negation2.0/Experiment2/contrastA/production-results/3JUDR1D0D6G4MF9B8WR1AFVRI74Q28-39GHHAVOMGG0PQIF7MVIUDBU2WX4JU.json,1,standard,FALSE
2310.825,crab,NA,155045,8,4,N,known,5,/Users/dan/Projects/callab/tunkel/Negation2.0/Experiment2/contrastA/production-results/3JUDR1D0D6G4MF9B8WR1AFVRI74Q28-39GHHAVOMGG0PQIF7MVIUDBU2WX4JU.json,2,standard,FALSE
2424.52,crab,NA,158329,9,8,N,known,5,/Users/dan/Projects/callab/tunkel/Negation2.0/Experiment2/contrastA/production-results/3JUDR1D0D6G4MF9B8WR1AFVRI74Q28-39GHHAVOMGG0PQIF7MVIUDBU2WX4JU.json,3,standard,FALSE
8491.135,plastic,NA,167683,10,N,6,unknown,5,/Users/dan/Projects/callab/tunkel/Negation2.0/Experiment2/contrastA/production-results/3JUDR1D0D6G4MF9B8WR1AFVRI74Q28-39GHHAVOMGG0PQIF7MVIUDBU2WX4JU.json,1,switch,FALSE
24434.675,plunger looking thing,NA,194731,11,A,10,unknown,5,/Users/dan/Projects/callab/tunkel/Negation2.0/Experiment2/contrastA/production-results/3JUDR1D0D6G4MF9B8WR1AFVRI74Q28-39GHHAVOMGG0PQIF7MVIUDBU2WX4JU.json,1,standard,FALSE
2007.015,tree,NA,198858,12,15,J,known,5,/Users/dan/Projects/callab/tunkel/Negation2.0/Experiment2/contrastA/production-results/3JUDR1D0D6G4MF9B8WR1AFVRI74Q28-39GHHAVOMGG0PQIF7MVIUDBU2WX4JU.json,1,standard,FALSE
4909.34,dog toy,NA,206894,13,L,2,unknown,5,/Users/dan/Projects/callab/tunkel/Negation2.0/Experiment2/contrastA/production-results/3JUDR1D0D6G4MF9B8WR1AFVRI74Q28-39GHHAVOMGG0PQIF7MVIUDBU2WX4JU.json,1,standard,FALSE
5510.425,dice,NA,213775,14,5,H,known,5,/Users/dan/Projects/callab/tunkel/Negation2.0/Experiment2/contrastA/production-results/3JUDR1D0D6G4MF9B8WR1AFVRI74Q28-39GHHAVOMGG0PQIF7MVIUDBU2WX4JU.json,1,standard,FALSE
3738.735,toy,NA,218625,15,I,16,unknown,5,/Users/dan/Projects/callab/tunkel/Negation2.0/Experiment2/contrastA/production-results/3JUDR1D0D6G4MF9B8WR1AFVRI74Q28-39GHHAVOMGG0PQIF7MVIUDBU2WX4JU.json,1,standard,FALSE
2161.06,toy,NA,223892,16,D,16,unknown,5,/Users/dan/Projects/callab/tunkel/Negation2.0/Experiment2/contrastA/production-results/3JUDR1D0D6G4MF9B8WR1AFVRI74Q28-39GHHAVOMGG0PQIF7MVIUDBU2WX4JU.json,2,standard,FALSE
1345.285,toy,NA,227101,17,M,16,unknown,5,/Users/dan/Projects/callab/tunkel/Negation2.0/Experiment2/contrastA/production-results/3JUDR1D0D6G4MF9B8WR1AFVRI74Q28-39GHHAVOMGG0PQIF7MVIUDBU2WX4JU.json,3,standard,FALSE
1708.67,cat,NA,229932,18,16,B,known,5,/Users/dan/Projects/callab/tunkel/Negation2.0/Experiment2/contrastA/production-results/3JUDR1D0D6G4MF9B8WR1AFVRI74Q28-39GHHAVOMGG0PQIF7MVIUDBU2WX4JU.json,1,switch,FALSE
10205.63,spin,NA,159881,3,H,12,unknown,6,/Users/dan/Projects/callab/tunkel/Negation2.0/Experiment2/contrastB/production-results/3ZLW647WALKCFE39ALF5X72G8FR32J-36WLNQG780ZCZ9HW80UE5B487GXEB4.json,1,standard,FALSE
7783.135,write,NA,169770,4,6,D,known,6,/Users/dan/Projects/callab/tunkel/Negation2.0/Experiment2/contrastB/production-results/3ZLW647WALKCFE39ALF5X72G8FR32J-36WLNQG780ZCZ9HW80UE5B487GXEB4.json,1,standard,FALSE
12695.455,pointy,NA,184570,5,I,5,unknown,6,/Users/dan/Projects/callab/tunkel/Negation2.0/Experiment2/contrastB/production-results/3ZLW647WALKCFE39ALF5X72G8FR32J-36WLNQG780ZCZ9HW80UE5B487GXEB4.json,1,standard,FALSE
14028.795,sit,NA,201703,6,4,E,known,6,/Users/dan/Projects/callab/tunkel/Negation2.0/Experiment2/contrastB/production-results/3ZLW647WALKCFE39ALF5X72G8FR32J-36WLNQG780ZCZ9HW80UE5B487GXEB4.json,1,standard,FALSE
12614.495,puzzle,NA,215173,7,J,15,unknown,6,/Users/dan/Projects/callab/tunkel/Negation2.0/Experiment2/contrastB/production-results/3ZLW647WALKCFE39ALF5X72G8FR32J-36WLNQG780ZCZ9HW80UE5B487GXEB4.json,1,standard,FALSE
8978.615,blocks,NA,225006,8,A,15,unknown,6,/Users/dan/Projects/callab/tunkel/Negation2.0/Experiment2/contrastB/production-results/3ZLW647WALKCFE39ALF5X72G8FR32J-36WLNQG780ZCZ9HW80UE5B487GXEB4.json,2,standard,FALSE
10157.76,shapes,NA,238269,9,G,15,unknown,6,/Users/dan/Projects/callab/tunkel/Negation2.0/Experiment2/contrastB/production-results/3ZLW647WALKCFE39ALF5X72G8FR32J-36WLNQG780ZCZ9HW80UE5B487GXEB4.json,3,standard,FALSE
11918.68,seafood,NA,251543,10,15,N,known,6,/Users/dan/Projects/callab/tunkel/Negation2.0/Experiment2/contrastB/production-results/3ZLW647WALKCFE39ALF5X72G8FR32J-36WLNQG780ZCZ9HW80UE5B487GXEB4.json,1,switch,FALSE
12795.265,finger,NA,267444,11,11,F,known,6,/Users/dan/Projects/callab/tunkel/Negation2.0/Experiment2/contrastB/production-results/3ZLW647WALKCFE39ALF5X72G8FR32J-36WLNQG780ZCZ9HW80UE5B487GXEB4.json,1,standard,FALSE
13699.13,tube,NA,283249,12,C,2,unknown,6,/Users/dan/Projects/callab/tunkel/Negation2.0/Experiment2/contrastB/production-results/3ZLW647WALKCFE39ALF5X72G8FR32J-36WLNQG780ZCZ9HW80UE5B487GXEB4.json,1,standard,FALSE
11307.735,duster,NA,295412,13,K,10,unknown,6,/Users/dan/Projects/callab/tunkel/Negation2.0/Experiment2/contrastB/production-results/3ZLW647WALKCFE39ALF5X72G8FR32J-36WLNQG780ZCZ9HW80UE5B487GXEB4.json,1,standard,FALSE
8651.985,plants,NA,306671,14,9,L,known,6,/Users/dan/Projects/callab/tunkel/Negation2.0/Experiment2/contrastB/production-results/3ZLW647WALKCFE39ALF5X72G8FR32J-36WLNQG780ZCZ9HW80UE5B487GXEB4.json,1,standard,FALSE
6318.61,pet,NA,314846,15,7,B,known,6,/Users/dan/Projects/callab/tunkel/Negation2.0/Experiment2/contrastB/production-results/3ZLW647WALKCFE39ALF5X72G8FR32J-36WLNQG780ZCZ9HW80UE5B487GXEB4.json,1,standard,FALSE
3751.155,pet,NA,320702,16,16,B,known,6,/Users/dan/Projects/callab/tunkel/Negation2.0/Experiment2/contrastB/production-results/3ZLW647WALKCFE39ALF5X72G8FR32J-36WLNQG780ZCZ9HW80UE5B487GXEB4.json,2,standard,FALSE
6268.885,pet,NA,329079,17,3,B,known,6,/Users/dan/Projects/callab/tunkel/Negation2.0/Experiment2/contrastB/production-results/3ZLW647WALKCFE39ALF5X72G8FR32J-36WLNQG780ZCZ9HW80UE5B487GXEB4.json,3,standard,FALSE
6398.695,spikey,NA,338083,18,B,1,unknown,6,/Users/dan/Projects/callab/tunkel/Negation2.0/Experiment2/contrastB/production-results/3ZLW647WALKCFE39ALF5X72G8FR32J-36WLNQG780ZCZ9HW80UE5B487GXEB4.json,1,switch,FALSE
8618.405,art,NA,75327,3,K,12,unknown,7,/Users/dan/Projects/callab/tunkel/Negation2.0/Experiment2/contrastB/production-results/34R0BODSP1O7O92THOYZE59PJE85ED-30OG32W0SV0E0I6TBQZNW642O5VNEM.json,1,standard,FALSE
2940.14,shoe,NA,80385,4,7,C,known,7,/Users/dan/Projects/callab/tunkel/Negation2.0/Experiment2/contrastB/production-results/34R0BODSP1O7O92THOYZE59PJE85ED-30OG32W0SV0E0I6TBQZNW642O5VNEM.json,1,standard,FALSE
4047.525,art,NA,86566,5,M,3,unknown,7,/Users/dan/Projects/callab/tunkel/Negation2.0/Experiment2/contrastB/production-results/34R0BODSP1O7O92THOYZE59PJE85ED-30OG32W0SV0E0I6TBQZNW642O5VNEM.json,1,standard,FALSE
2572.13,cat,NA,91750,6,9,B,known,7,/Users/dan/Projects/callab/tunkel/Negation2.0/Experiment2/contrastB/production-results/34R0BODSP1O7O92THOYZE59PJE85ED-30OG32W0SV0E0I6TBQZNW642O5VNEM.json,1,standard,FALSE
23907.78,art,NA,117017,7,H,4,unknown,7,/Users/dan/Projects/callab/tunkel/Negation2.0/Experiment2/contrastB/production-results/34R0BODSP1O7O92THOYZE59PJE85ED-30OG32W0SV0E0I6TBQZNW642O5VNEM.json,1,standard,FALSE
5278.46,art,NA,123903,8,F,4,unknown,7,/Users/dan/Projects/callab/tunkel/Negation2.0/Experiment2/contrastB/production-results/34R0BODSP1O7O92THOYZE59PJE85ED-30OG32W0SV0E0I6TBQZNW642O5VNEM.json,2,standard,FALSE
2906.965,art,NA,128669,9,D,4,unknown,7,/Users/dan/Projects/callab/tunkel/Negation2.0/Experiment2/contrastB/production-results/34R0BODSP1O7O92THOYZE59PJE85ED-30OG32W0SV0E0I6TBQZNW642O5VNEM.json,3,standard,FALSE
3138.005,tree,NA,132676,10,4,J,known,7,/Users/dan/Projects/callab/tunkel/Negation2.0/Experiment2/contrastB/production-results/34R0BODSP1O7O92THOYZE59PJE85ED-30OG32W0SV0E0I6TBQZNW642O5VNEM.json,1,switch,FALSE
3525.6,flower,NA,138311,11,8,L,known,7,/Users/dan/Projects/callab/tunkel/Negation2.0/Experiment2/contrastB/production-results/34R0BODSP1O7O92THOYZE59PJE85ED-30OG32W0SV0E0I6TBQZNW642O5VNEM.json,1,standard,FALSE
3042.295,at,NA,143477,12,A,10,unknown,7,/Users/dan/Projects/callab/tunkel/Negation2.0/Experiment2/contrastB/production-results/34R0BODSP1O7O92THOYZE59PJE85ED-30OG32W0SV0E0I6TBQZNW642O5VNEM.json,1,standard,FALSE
4905.71,bricks,NA,149990,13,I,15,unknown,7,/Users/dan/Projects/callab/tunkel/Negation2.0/Experiment2/contrastB/production-results/34R0BODSP1O7O92THOYZE59PJE85ED-30OG32W0SV0E0I6TBQZNW642O5VNEM.json,1,standard,FALSE
2812.645,fork,NA,154415,14,6,G,known,7,/Users/dan/Projects/callab/tunkel/Negation2.0/Experiment2/contrastB/production-results/34R0BODSP1O7O92THOYZE59PJE85ED-30OG32W0SV0E0I6TBQZNW642O5VNEM.json,1,standard,FALSE
3760.625,scorpion,NA,160805,15,5,N,known,7,/Users/dan/Projects/callab/tunkel/Negation2.0/Experiment2/contrastB/production-results/34R0BODSP1O7O92THOYZE59PJE85ED-30OG32W0SV0E0I6TBQZNW642O5VNEM.json,1,standard,FALSE
4350.595,scorpion,NA,168264,16,2,N,known,7,/Users/dan/Projects/callab/tunkel/Negation2.0/Experiment2/contrastB/production-results/34R0BODSP1O7O92THOYZE59PJE85ED-30OG32W0SV0E0I6TBQZNW642O5VNEM.json,2,standard,FALSE
3974.445,scorpion,NA,174864,17,11,N,known,7,/Users/dan/Projects/callab/tunkel/Negation2.0/Experiment2/contrastB/production-results/34R0BODSP1O7O92THOYZE59PJE85ED-30OG32W0SV0E0I6TBQZNW642O5VNEM.json,3,standard,FALSE
2974.76,art,NA,179455,18,N,1,unknown,7,/Users/dan/Projects/callab/tunkel/Negation2.0/Experiment2/contrastB/production-results/34R0BODSP1O7O92THOYZE59PJE85ED-30OG32W0SV0E0I6TBQZNW642O5VNEM.json,1,switch,FALSE
2402.63,cat,NA,88946,3,11,B,known,8,/Users/dan/Projects/callab/tunkel/Negation2.0/Experiment2/contrastA/production-results/3JUDR1D0D6G4MF9B8WR1AFVRI74Q28-388U7OUMF8Q0OQJRWQHPK178V1AR0S.json,1,standard,FALSE
4335.765,two,NA,94645,4,D,1,unknown,8,/Users/dan/Projects/callab/tunkel/Negation2.0/Experiment2/contrastA/production-results/3JUDR1D0D6G4MF9B8WR1AFVRI74Q28-388U7OUMF8Q0OQJRWQHPK178V1AR0S.json,1,standard,FALSE
4963.945,cymbals,NA,100970,5,F,12,unknown,8,/Users/dan/Projects/callab/tunkel/Negation2.0/Experiment2/contrastA/production-results/3JUDR1D0D6G4MF9B8WR1AFVRI74Q28-388U7OUMF8Q0OQJRWQHPK178V1AR0S.json,1,standard,FALSE
2615.61,flower,NA,104698,6,2,L,known,8,/Users/dan/Projects/callab/tunkel/Negation2.0/Experiment2/contrastA/production-results/3JUDR1D0D6G4MF9B8WR1AFVRI74Q28-388U7OUMF8Q0OQJRWQHPK178V1AR0S.json,1,standard,FALSE
2128.415,tree,NA,107688,7,8,J,known,8,/Users/dan/Projects/callab/tunkel/Negation2.0/Experiment2/contrastA/production-results/3JUDR1D0D6G4MF9B8WR1AFVRI74Q28-388U7OUMF8Q0OQJRWQHPK178V1AR0S.json,1,standard,FALSE
2332.885,tree,NA,112634,8,15,J,known,8,/Users/dan/Projects/callab/tunkel/Negation2.0/Experiment2/contrastA/production-results/3JUDR1D0D6G4MF9B8WR1AFVRI74Q28-388U7OUMF8Q0OQJRWQHPK178V1AR0S.json,2,standard,FALSE
2732.125,tree,NA,116476,9,3,J,known,8,/Users/dan/Projects/callab/tunkel/Negation2.0/Experiment2/contrastA/production-results/3JUDR1D0D6G4MF9B8WR1AFVRI74Q28-388U7OUMF8Q0OQJRWQHPK178V1AR0S.json,3,standard,FALSE
5782.035,dumbell,NA,124869,10,J,5,unknown,8,/Users/dan/Projects/callab/tunkel/Negation2.0/Experiment2/contrastA/production-results/3JUDR1D0D6G4MF9B8WR1AFVRI74Q28-388U7OUMF8Q0OQJRWQHPK178V1AR0S.json,1,switch,FALSE
5308.89,left,NA,131791,11,M,6,unknown,8,/Users/dan/Projects/callab/tunkel/Negation2.0/Experiment2/contrastA/production-results/3JUDR1D0D6G4MF9B8WR1AFVRI74Q28-388U7OUMF8Q0OQJRWQHPK178V1AR0S.json,1,standard,FALSE
2149.71,chair,NA,134802,12,16,E,known,8,/Users/dan/Projects/callab/tunkel/Negation2.0/Experiment2/contrastA/production-results/3JUDR1D0D6G4MF9B8WR1AFVRI74Q28-388U7OUMF8Q0OQJRWQHPK178V1AR0S.json,1,standard,FALSE
6951.86,donut,NA,143115,13,A,4,unknown,8,/Users/dan/Projects/callab/tunkel/Negation2.0/Experiment2/contrastA/production-results/3JUDR1D0D6G4MF9B8WR1AFVRI74Q28-388U7OUMF8Q0OQJRWQHPK178V1AR0S.json,1,standard,FALSE
2306.265,dice,NA,148536,14,9,H,known,8,/Users/dan/Projects/callab/tunkel/Negation2.0/Experiment2/contrastA/production-results/3JUDR1D0D6G4MF9B8WR1AFVRI74Q28-388U7OUMF8Q0OQJRWQHPK178V1AR0S.json,1,standard,FALSE
4515.755,right,NA,155663,15,C,10,unknown,8,/Users/dan/Projects/callab/tunkel/Negation2.0/Experiment2/contrastA/production-results/3JUDR1D0D6G4MF9B8WR1AFVRI74Q28-388U7OUMF8Q0OQJRWQHPK178V1AR0S.json,1,standard,FALSE
2203.55,right,NA,159978,16,N,10,unknown,8,/Users/dan/Projects/callab/tunkel/Negation2.0/Experiment2/contrastA/production-results/3JUDR1D0D6G4MF9B8WR1AFVRI74Q28-388U7OUMF8Q0OQJRWQHPK178V1AR0S.json,2,standard,FALSE
2118.965,left,NA,163959,17,K,10,unknown,8,/Users/dan/Projects/callab/tunkel/Negation2.0/Experiment2/contrastA/production-results/3JUDR1D0D6G4MF9B8WR1AFVRI74Q28-388U7OUMF8Q0OQJRWQHPK178V1AR0S.json,3,standard,FALSE
2216.45,fork,NA,168292,18,10,G,known,8,/Users/dan/Projects/callab/tunkel/Negation2.0/Experiment2/contrastA/production-results/3JUDR1D0D6G4MF9B8WR1AFVRI74Q28-388U7OUMF8Q0OQJRWQHPK178V1AR0S.json,1,switch,FALSE
7801.88,not car,NA,138587,3,I,7,unknown,9,/Users/dan/Projects/callab/tunkel/Negation2.0/Experiment2/contrastB/production-results/34R0BODSP1O7O92THOYZE59PJE85ED-3PM8NZGV8Z589FA2MNHWOPKE9MTXQS.json,1,standard,TRUE
2849.235,cat,NA,143040,4,6,B,known,9,/Users/dan/Projects/callab/tunkel/Negation2.0/Experiment2/contrastB/production-results/34R0BODSP1O7O92THOYZE59PJE85ED-3PM8NZGV8Z589FA2MNHWOPKE9MTXQS.json,1,standard,FALSE
8676.5,not pen,NA,153320,5,D,16,unknown,9,/Users/dan/Projects/callab/tunkel/Negation2.0/Experiment2/contrastB/production-results/34R0BODSP1O7O92THOYZE59PJE85ED-3PM8NZGV8Z589FA2MNHWOPKE9MTXQS.json,1,standard,TRUE
5165.315,butterfly,NA,160588,6,8,K,known,9,/Users/dan/Projects/callab/tunkel/Negation2.0/Experiment2/contrastB/production-results/34R0BODSP1O7O92THOYZE59PJE85ED-3PM8NZGV8Z589FA2MNHWOPKE9MTXQS.json,1,standard,FALSE
6245.44,dog toy,NA,169437,7,L,1,unknown,9,/Users/dan/Projects/callab/tunkel/Negation2.0/Experiment2/contrastB/production-results/34R0BODSP1O7O92THOYZE59PJE85ED-3PM8NZGV8Z589FA2MNHWOPKE9MTXQS.json,1,standard,FALSE
9213.895,not shoe,NA,180505,8,C,1,unknown,9,/Users/dan/Projects/callab/tunkel/Negation2.0/Experiment2/contrastB/production-results/34R0BODSP1O7O92THOYZE59PJE85ED-3PM8NZGV8Z589FA2MNHWOPKE9MTXQS.json,2,standard,TRUE
4241.15,not chair,NA,186599,9,E,1,unknown,9,/Users/dan/Projects/callab/tunkel/Negation2.0/Experiment2/contrastB/production-results/34R0BODSP1O7O92THOYZE59PJE85ED-3PM8NZGV8Z589FA2MNHWOPKE9MTXQS.json,3,standard,TRUE
2963.985,cup,NA,192666,10,1,M,known,9,/Users/dan/Projects/callab/tunkel/Negation2.0/Experiment2/contrastB/production-results/34R0BODSP1O7O92THOYZE59PJE85ED-3PM8NZGV8Z589FA2MNHWOPKE9MTXQS.json,1,switch,FALSE
3081.3,crab,NA,198350,11,12,N,known,9,/Users/dan/Projects/callab/tunkel/Negation2.0/Experiment2/contrastB/production-results/34R0BODSP1O7O92THOYZE59PJE85ED-3PM8NZGV8Z589FA2MNHWOPKE9MTXQS.json,1,standard,FALSE
5057.985,not dice,NA,206512,12,H,2,unknown,9,/Users/dan/Projects/callab/tunkel/Negation2.0/Experiment2/contrastB/production-results/34R0BODSP1O7O92THOYZE59PJE85ED-3PM8NZGV8Z589FA2MNHWOPKE9MTXQS.json,1,standard,TRUE
4607.53,not apple,NA,214223,13,A,3,unknown,9,/Users/dan/Projects/callab/tunkel/Negation2.0/Experiment2/contrastB/production-results/34R0BODSP1O7O92THOYZE59PJE85ED-3PM8NZGV8Z589FA2MNHWOPKE9MTXQS.json,1,standard,TRUE
3232.87,fork,NA,219310,14,11,G,known,9,/Users/dan/Projects/callab/tunkel/Negation2.0/Experiment2/contrastB/production-results/34R0BODSP1O7O92THOYZE59PJE85ED-3PM8NZGV8Z589FA2MNHWOPKE9MTXQS.json,1,standard,FALSE
2111.225,tree,NA,224525,15,5,J,known,9,/Users/dan/Projects/callab/tunkel/Negation2.0/Experiment2/contrastB/production-results/34R0BODSP1O7O92THOYZE59PJE85ED-3PM8NZGV8Z589FA2MNHWOPKE9MTXQS.json,1,standard,FALSE
2287.19,tree,NA,228665,16,4,J,known,9,/Users/dan/Projects/callab/tunkel/Negation2.0/Experiment2/contrastB/production-results/34R0BODSP1O7O92THOYZE59PJE85ED-3PM8NZGV8Z589FA2MNHWOPKE9MTXQS.json,2,standard,FALSE
2306.26,tree,NA,234076,17,15,J,known,9,/Users/dan/Projects/callab/tunkel/Negation2.0/Experiment2/contrastB/production-results/34R0BODSP1O7O92THOYZE59PJE85ED-3PM8NZGV8Z589FA2MNHWOPKE9MTXQS.json,3,standard,FALSE
4853.45,not tree,NA,239784,18,J,9,unknown,9,/Users/dan/Projects/callab/tunkel/Negation2.0/Experiment2/contrastB/production-results/34R0BODSP1O7O92THOYZE59PJE85ED-3PM8NZGV8Z589FA2MNHWOPKE9MTXQS.json,1,switch,TRUE
2941.295,cup,NA,107736,3,2,M,known,10,/Users/dan/Projects/callab/tunkel/Negation2.0/Experiment2/contrastA/production-results/338GLSUI43000P00OVVDPY4H9ZUSFJ-3U84XHCDID2QP5NJP8Y4I7ZKLU9Z49.json,1,standard,FALSE
4762.455,art,NA,114353,4,E,4,unknown,10,/Users/dan/Projects/callab/tunkel/Negation2.0/Experiment2/contrastA/production-results/338GLSUI43000P00OVVDPY4H9ZUSFJ-3U84XHCDID2QP5NJP8Y4I7ZKLU9Z49.json,1,standard,FALSE
3366.405,toy,NA,118824,5,F,1,unknown,10,/Users/dan/Projects/callab/tunkel/Negation2.0/Experiment2/contrastA/production-results/338GLSUI43000P00OVVDPY4H9ZUSFJ-3U84XHCDID2QP5NJP8Y4I7ZKLU9Z49.json,1,standard,FALSE
2604.165,apple,NA,122531,6,16,A,known,10,/Users/dan/Projects/callab/tunkel/Negation2.0/Experiment2/contrastA/production-results/338GLSUI43000P00OVVDPY4H9ZUSFJ-3U84XHCDID2QP5NJP8Y4I7ZKLU9Z49.json,1,standard,FALSE
3485.215,dice,NA,127370,7,8,H,known,10,/Users/dan/Projects/callab/tunkel/Negation2.0/Experiment2/contrastA/production-results/338GLSUI43000P00OVVDPY4H9ZUSFJ-3U84XHCDID2QP5NJP8Y4I7ZKLU9Z49.json,1,standard,FALSE
2113.41,dice,NA,130839,8,15,H,known,10,/Users/dan/Projects/callab/tunkel/Negation2.0/Experiment2/contrastA/production-results/338GLSUI43000P00OVVDPY4H9ZUSFJ-3U84XHCDID2QP5NJP8Y4I7ZKLU9Z49.json,2,standard,FALSE
2778.825,dice,NA,136722,9,9,H,known,10,/Users/dan/Projects/callab/tunkel/Negation2.0/Experiment2/contrastA/production-results/338GLSUI43000P00OVVDPY4H9ZUSFJ-3U84XHCDID2QP5NJP8Y4I7ZKLU9Z49.json,3,standard,FALSE
5715.54,toy,NA,143793,10,H,6,unknown,10,/Users/dan/Projects/callab/tunkel/Negation2.0/Experiment2/contrastA/production-results/338GLSUI43000P00OVVDPY4H9ZUSFJ-3U84XHCDID2QP5NJP8Y4I7ZKLU9Z49.json,1,switch,FALSE
2689.145,toy,NA,148336,11,C,5,unknown,10,/Users/dan/Projects/callab/tunkel/Negation2.0/Experiment2/contrastA/production-results/338GLSUI43000P00OVVDPY4H9ZUSFJ-3U84XHCDID2QP5NJP8Y4I7ZKLU9Z49.json,1,standard,FALSE
2302.4,fork,NA,152243,12,11,G,known,10,/Users/dan/Projects/callab/tunkel/Negation2.0/Experiment2/contrastA/production-results/338GLSUI43000P00OVVDPY4H9ZUSFJ-3U84XHCDID2QP5NJP8Y4I7ZKLU9Z49.json,1,standard,FALSE
3940.645,art,NA,158038,13,L,3,unknown,10,/Users/dan/Projects/callab/tunkel/Negation2.0/Experiment2/contrastA/production-results/338GLSUI43000P00OVVDPY4H9ZUSFJ-3U84XHCDID2QP5NJP8Y4I7ZKLU9Z49.json,1,standard,FALSE
2880.38,pen,NA,161773,14,10,D,known,10,/Users/dan/Projects/callab/tunkel/Negation2.0/Experiment2/contrastA/production-results/338GLSUI43000P00OVVDPY4H9ZUSFJ-3U84XHCDID2QP5NJP8Y4I7ZKLU9Z49.json,1,standard,FALSE
5334.345,art,NA,169711,15,K,7,unknown,10,/Users/dan/Projects/callab/tunkel/Negation2.0/Experiment2/contrastA/production-results/338GLSUI43000P00OVVDPY4H9ZUSFJ-3U84XHCDID2QP5NJP8Y4I7ZKLU9Z49.json,1,standard,FALSE
3399.84,art,NA,174965,16,B,7,unknown,10,/Users/dan/Projects/callab/tunkel/Negation2.0/Experiment2/contrastA/production-results/338GLSUI43000P00OVVDPY4H9ZUSFJ-3U84XHCDID2QP5NJP8Y4I7ZKLU9Z49.json,2,standard,FALSE
3416.18,art,NA,180486,17,J,7,unknown,10,/Users/dan/Projects/callab/tunkel/Negation2.0/Experiment2/contrastA/production-results/338GLSUI43000P00OVVDPY4H9ZUSFJ-3U84XHCDID2QP5NJP8Y4I7ZKLU9Z49.json,3,standard,FALSE
3375.76,crab,NA,186968,18,7,N,known,10,/Users/dan/Projects/callab/tunkel/Negation2.0/Experiment2/contrastA/production-results/338GLSUI43000P00OVVDPY4H9ZUSFJ-3U84XHCDID2QP5NJP8Y4I7ZKLU9Z49.json,1,switch,FALSE
8430.26,drink,NA,125837,3,16,M,known,11,/Users/dan/Projects/callab/tunkel/Negation2.0/Experiment2/contrastA/production-results/3BPP3MA3TC9LQY5E9BE6VU5M547LEG-3TE3O85731X7K0M5BDL33P0NSZUR2C.json,1,standard,FALSE
8366.88,art,NA,136812,4,A,8,unknown,11,/Users/dan/Projects/callab/tunkel/Negation2.0/Experiment2/contrastA/production-results/3BPP3MA3TC9LQY5E9BE6VU5M547LEG-3TE3O85731X7K0M5BDL33P0NSZUR2C.json,1,standard,FALSE
8684.92,art,NA,148604,5,J,4,unknown,11,/Users/dan/Projects/callab/tunkel/Negation2.0/Experiment2/contrastA/production-results/3BPP3MA3TC9LQY5E9BE6VU5M547LEG-3TE3O85731X7K0M5BDL33P0NSZUR2C.json,1,standard,FALSE
4895.695,meow,NA,155108,6,9,B,known,11,/Users/dan/Projects/callab/tunkel/Negation2.0/Experiment2/contrastA/production-results/3BPP3MA3TC9LQY5E9BE6VU5M547LEG-3TE3O85731X7K0M5BDL33P0NSZUR2C.json,1,standard,FALSE
6627.4,spring,NA,163092,7,5,L,known,11,/Users/dan/Projects/callab/tunkel/Negation2.0/Experiment2/contrastA/production-results/3BPP3MA3TC9LQY5E9BE6VU5M547LEG-3TE3O85731X7K0M5BDL33P0NSZUR2C.json,1,standard,FALSE
8467.055,spring,NA,172916,8,15,L,known,11,/Users/dan/Projects/callab/tunkel/Negation2.0/Experiment2/contrastA/production-results/3BPP3MA3TC9LQY5E9BE6VU5M547LEG-3TE3O85731X7K0M5BDL33P0NSZUR2C.json,2,standard,FALSE
5249.02,spring,NA,180020,9,1,L,known,11,/Users/dan/Projects/callab/tunkel/Negation2.0/Experiment2/contrastA/production-results/3BPP3MA3TC9LQY5E9BE6VU5M547LEG-3TE3O85731X7K0M5BDL33P0NSZUR2C.json,3,standard,FALSE
6460.305,ear,NA,187589,10,L,10,unknown,11,/Users/dan/Projects/callab/tunkel/Negation2.0/Experiment2/contrastA/production-results/3BPP3MA3TC9LQY5E9BE6VU5M547LEG-3TE3O85731X7K0M5BDL33P0NSZUR2C.json,1,switch,FALSE
7388.665,art,NA,196084,11,D,11,unknown,11,/Users/dan/Projects/callab/tunkel/Negation2.0/Experiment2/contrastA/production-results/3BPP3MA3TC9LQY5E9BE6VU5M547LEG-3TE3O85731X7K0M5BDL33P0NSZUR2C.json,1,standard,FALSE
6555.505,sea,NA,203749,12,6,N,known,11,/Users/dan/Projects/callab/tunkel/Negation2.0/Experiment2/contrastA/production-results/3BPP3MA3TC9LQY5E9BE6VU5M547LEG-3TE3O85731X7K0M5BDL33P0NSZUR2C.json,1,standard,FALSE
13925.475,spining,NA,220780,13,H,12,unknown,11,/Users/dan/Projects/callab/tunkel/Negation2.0/Experiment2/contrastA/production-results/3BPP3MA3TC9LQY5E9BE6VU5M547LEG-3TE3O85731X7K0M5BDL33P0NSZUR2C.json,1,standard,FALSE
4695.06,sit,NA,226332,14,2,E,known,11,/Users/dan/Projects/callab/tunkel/Negation2.0/Experiment2/contrastA/production-results/3BPP3MA3TC9LQY5E9BE6VU5M547LEG-3TE3O85731X7K0M5BDL33P0NSZUR2C.json,1,standard,FALSE
13524.065,art,NA,241964,15,I,7,unknown,11,/Users/dan/Projects/callab/tunkel/Negation2.0/Experiment2/contrastA/production-results/3BPP3MA3TC9LQY5E9BE6VU5M547LEG-3TE3O85731X7K0M5BDL33P0NSZUR2C.json,1,standard,FALSE
4255.855,art,NA,247076,16,G,7,unknown,11,/Users/dan/Projects/callab/tunkel/Negation2.0/Experiment2/contrastA/production-results/3BPP3MA3TC9LQY5E9BE6VU5M547LEG-3TE3O85731X7K0M5BDL33P0NSZUR2C.json,2,standard,FALSE
3416.52,art,NA,253100,17,F,7,unknown,11,/Users/dan/Projects/callab/tunkel/Negation2.0/Experiment2/contrastA/production-results/3BPP3MA3TC9LQY5E9BE6VU5M547LEG-3TE3O85731X7K0M5BDL33P0NSZUR2C.json,3,standard,FALSE
5699.65,walk,NA,260156,18,7,C,known,11,/Users/dan/Projects/callab/tunkel/Negation2.0/Experiment2/contrastA/production-results/3BPP3MA3TC9LQY5E9BE6VU5M547LEG-3TE3O85731X7K0M5BDL33P0NSZUR2C.json,1,switch,FALSE
2862.885,cat,NA,81377,3,4,B,known,12,/Users/dan/Projects/callab/tunkel/Negation2.0/Experiment2/contrastA/production-results/3JUDR1D0D6G4MF9B8WR1AFVRI74Q28-3TVSS0C0E2P6CVX4TMF5RBHUKRMTW9.json,1,standard,FALSE
2825.715,art,NA,86059,4,J,8,unknown,12,/Users/dan/Projects/callab/tunkel/Negation2.0/Experiment2/contrastA/production-results/3JUDR1D0D6G4MF9B8WR1AFVRI74Q28-3TVSS0C0E2P6CVX4TMF5RBHUKRMTW9.json,1,standard,FALSE
9158.83,piece,NA,97073,5,G,3,unknown,12,/Users/dan/Projects/callab/tunkel/Negation2.0/Experiment2/contrastA/production-results/3JUDR1D0D6G4MF9B8WR1AFVRI74Q28-3TVSS0C0E2P6CVX4TMF5RBHUKRMTW9.json,1,standard,FALSE
2882.68,flower,NA,102062,6,7,L,known,12,/Users/dan/Projects/callab/tunkel/Negation2.0/Experiment2/contrastA/production-results/3JUDR1D0D6G4MF9B8WR1AFVRI74Q28-3TVSS0C0E2P6CVX4TMF5RBHUKRMTW9.json,1,standard,FALSE
3988.48,furniture,NA,107404,7,12,E,known,12,/Users/dan/Projects/callab/tunkel/Negation2.0/Experiment2/contrastA/production-results/3JUDR1D0D6G4MF9B8WR1AFVRI74Q28-3TVSS0C0E2P6CVX4TMF5RBHUKRMTW9.json,1,standard,FALSE
2414.64,chair,NA,112425,8,2,E,known,12,/Users/dan/Projects/callab/tunkel/Negation2.0/Experiment2/contrastA/production-results/3JUDR1D0D6G4MF9B8WR1AFVRI74Q28-3TVSS0C0E2P6CVX4TMF5RBHUKRMTW9.json,2,standard,FALSE
1823.435,chair,NA,115354,9,16,E,known,12,/Users/dan/Projects/callab/tunkel/Negation2.0/Experiment2/contrastA/production-results/3JUDR1D0D6G4MF9B8WR1AFVRI74Q28-3TVSS0C0E2P6CVX4TMF5RBHUKRMTW9.json,3,standard,FALSE
2867.46,art,NA,121330,10,E,5,unknown,12,/Users/dan/Projects/callab/tunkel/Negation2.0/Experiment2/contrastA/production-results/3JUDR1D0D6G4MF9B8WR1AFVRI74Q28-3TVSS0C0E2P6CVX4TMF5RBHUKRMTW9.json,1,switch,FALSE
2635.1,art,NA,127070,11,N,11,unknown,12,/Users/dan/Projects/callab/tunkel/Negation2.0/Experiment2/contrastA/production-results/3JUDR1D0D6G4MF9B8WR1AFVRI74Q28-3TVSS0C0E2P6CVX4TMF5RBHUKRMTW9.json,1,standard,FALSE
2235.02,dice,NA,130161,12,9,H,known,12,/Users/dan/Projects/callab/tunkel/Negation2.0/Experiment2/contrastA/production-results/3JUDR1D0D6G4MF9B8WR1AFVRI74Q28-3TVSS0C0E2P6CVX4TMF5RBHUKRMTW9.json,1,standard,FALSE
6651.27,utensil,NA,139918,13,C,10,unknown,12,/Users/dan/Projects/callab/tunkel/Negation2.0/Experiment2/contrastA/production-results/3JUDR1D0D6G4MF9B8WR1AFVRI74Q28-3TVSS0C0E2P6CVX4TMF5RBHUKRMTW9.json,1,standard,FALSE
2787.03,apple,NA,145310,14,1,A,known,12,/Users/dan/Projects/callab/tunkel/Negation2.0/Experiment2/contrastA/production-results/3JUDR1D0D6G4MF9B8WR1AFVRI74Q28-3TVSS0C0E2P6CVX4TMF5RBHUKRMTW9.json,1,standard,FALSE
7749.27,puzzle,NA,156165,15,I,15,unknown,12,/Users/dan/Projects/callab/tunkel/Negation2.0/Experiment2/contrastA/production-results/3JUDR1D0D6G4MF9B8WR1AFVRI74Q28-3TVSS0C0E2P6CVX4TMF5RBHUKRMTW9.json,1,standard,FALSE
2766.9,puzzle,NA,160037,16,F,15,unknown,12,/Users/dan/Projects/callab/tunkel/Negation2.0/Experiment2/contrastA/production-results/3JUDR1D0D6G4MF9B8WR1AFVRI74Q28-3TVSS0C0E2P6CVX4TMF5RBHUKRMTW9.json,2,standard,FALSE
2276.63,puzzle,NA,165421,17,M,15,unknown,12,/Users/dan/Projects/callab/tunkel/Negation2.0/Experiment2/contrastA/production-results/3JUDR1D0D6G4MF9B8WR1AFVRI74Q28-3TVSS0C0E2P6CVX4TMF5RBHUKRMTW9.json,3,standard,FALSE
2689.505,pen,NA,170216,18,15,D,known,12,/Users/dan/Projects/callab/tunkel/Negation2.0/Experiment2/contrastA/production-results/3JUDR1D0D6G4MF9B8WR1AFVRI74Q28-3TVSS0C0E2P6CVX4TMF5RBHUKRMTW9.json,1,switch,FALSE
4617.21,ring,NA,207756,3,16,F,known,13,/Users/dan/Projects/callab/tunkel/Negation2.0/Experiment2/contrastA/production-results/338GLSUI43000P00OVVDPY4H9ZUSFJ-3WR9XG3T64075VHD6D6LRN6LB1W74P.json,1,standard,FALSE
17746.825,plunger,NA,226378,4,K,10,unknown,13,/Users/dan/Projects/callab/tunkel/Negation2.0/Experiment2/contrastA/production-results/338GLSUI43000P00OVVDPY4H9ZUSFJ-3WR9XG3T64075VHD6D6LRN6LB1W74P.json,1,standard,FALSE
8272.58,toy,NA,236514,5,M,7,unknown,13,/Users/dan/Projects/callab/tunkel/Negation2.0/Experiment2/contrastA/production-results/338GLSUI43000P00OVVDPY4H9ZUSFJ-3WR9XG3T64075VHD6D6LRN6LB1W74P.json,1,standard,FALSE
5840.015,tree,NA,243474,6,15,J,known,13,/Users/dan/Projects/callab/tunkel/Negation2.0/Experiment2/contrastA/production-results/338GLSUI43000P00OVVDPY4H9ZUSFJ-3WR9XG3T64075VHD6D6LRN6LB1W74P.json,1,standard,FALSE
5122.29,shoe,NA,250205,7,3,C,known,13,/Users/dan/Projects/callab/tunkel/Negation2.0/Experiment2/contrastA/production-results/338GLSUI43000P00OVVDPY4H9ZUSFJ-3WR9XG3T64075VHD6D6LRN6LB1W74P.json,1,standard,FALSE
5423.86,shoe,NA,256786,8,4,C,known,13,/Users/dan/Projects/callab/tunkel/Negation2.0/Experiment2/contrastA/production-results/338GLSUI43000P00OVVDPY4H9ZUSFJ-3WR9XG3T64075VHD6D6LRN6LB1W74P.json,2,standard,FALSE
6013.74,shoe,NA,264167,9,12,C,known,13,/Users/dan/Projects/callab/tunkel/Negation2.0/Experiment2/contrastA/production-results/338GLSUI43000P00OVVDPY4H9ZUSFJ-3WR9XG3T64075VHD6D6LRN6LB1W74P.json,3,standard,FALSE
5241.125,toy,NA,272101,10,C,1,unknown,13,/Users/dan/Projects/callab/tunkel/Negation2.0/Experiment2/contrastA/production-results/338GLSUI43000P00OVVDPY4H9ZUSFJ-3WR9XG3T64075VHD6D6LRN6LB1W74P.json,1,switch,FALSE
8258.24,toy,NA,281491,11,A,9,unknown,13,/Users/dan/Projects/callab/tunkel/Negation2.0/Experiment2/contrastA/production-results/338GLSUI43000P00OVVDPY4H9ZUSFJ-3WR9XG3T64075VHD6D6LRN6LB1W74P.json,1,standard,FALSE
8256.04,flower,NA,290864,12,6,L,known,13,/Users/dan/Projects/callab/tunkel/Negation2.0/Experiment2/contrastA/production-results/338GLSUI43000P00OVVDPY4H9ZUSFJ-3WR9XG3T64075VHD6D6LRN6LB1W74P.json,1,standard,FALSE
7862.715,toy,NA,300126,13,H,5,unknown,13,/Users/dan/Projects/callab/tunkel/Negation2.0/Experiment2/contrastA/production-results/338GLSUI43000P00OVVDPY4H9ZUSFJ-3WR9XG3T64075VHD6D6LRN6LB1W74P.json,1,standard,FALSE
5366.445,cat,NA,308610,14,11,B,known,13,/Users/dan/Projects/callab/tunkel/Negation2.0/Experiment2/contrastA/production-results/338GLSUI43000P00OVVDPY4H9ZUSFJ-3WR9XG3T64075VHD6D6LRN6LB1W74P.json,1,standard,FALSE
8349.975,toy,NA,317937,15,N,8,unknown,13,/Users/dan/Projects/callab/tunkel/Negation2.0/Experiment2/contrastA/production-results/338GLSUI43000P00OVVDPY4H9ZUSFJ-3WR9XG3T64075VHD6D6LRN6LB1W74P.json,1,standard,FALSE
5447.265,toy,NA,326500,16,D,8,unknown,13,/Users/dan/Projects/callab/tunkel/Negation2.0/Experiment2/contrastA/production-results/338GLSUI43000P00OVVDPY4H9ZUSFJ-3WR9XG3T64075VHD6D6LRN6LB1W74P.json,2,standard,FALSE
4692.625,toy,NA,332858,17,G,8,unknown,13,/Users/dan/Projects/callab/tunkel/Negation2.0/Experiment2/contrastA/production-results/338GLSUI43000P00OVVDPY4H9ZUSFJ-3WR9XG3T64075VHD6D6LRN6LB1W74P.json,3,standard,FALSE
3536.17,car,NA,338024,18,8,I,known,13,/Users/dan/Projects/callab/tunkel/Negation2.0/Experiment2/contrastA/production-results/338GLSUI43000P00OVVDPY4H9ZUSFJ-3WR9XG3T64075VHD6D6LRN6LB1W74P.json,1,switch,FALSE
9127.16,flower toy,NA,133698,3,I,8,unknown,14,/Users/dan/Projects/callab/tunkel/Negation2.0/Experiment2/contrastB/production-results/3ZLW647WALKCFE39ALF5X72G8FR32J-3QECW5O0KIQCZCIKXLSW1B4H0UJ5T5.json,1,standard,FALSE
4205.63,butterfly,NA,139758,4,6,K,known,14,/Users/dan/Projects/callab/tunkel/Negation2.0/Experiment2/contrastB/production-results/3ZLW647WALKCFE39ALF5X72G8FR32J-3QECW5O0KIQCZCIKXLSW1B4H0UJ5T5.json,1,standard,FALSE
4108.285,sandal,NA,145222,5,G,7,unknown,14,/Users/dan/Projects/callab/tunkel/Negation2.0/Experiment2/contrastB/production-results/3ZLW647WALKCFE39ALF5X72G8FR32J-3QECW5O0KIQCZCIKXLSW1B4H0UJ5T5.json,1,standard,FALSE
3235.255,pen,NA,149813,6,5,D,known,14,/Users/dan/Projects/callab/tunkel/Negation2.0/Experiment2/contrastB/production-results/3ZLW647WALKCFE39ALF5X72G8FR32J-3QECW5O0KIQCZCIKXLSW1B4H0UJ5T5.json,1,standard,FALSE
7199.78,black toy thing,NA,160116,7,B,11,unknown,14,/Users/dan/Projects/callab/tunkel/Negation2.0/Experiment2/contrastB/production-results/3ZLW647WALKCFE39ALF5X72G8FR32J-3QECW5O0KIQCZCIKXLSW1B4H0UJ5T5.json,1,standard,FALSE
3833.7,black toy thing,NA,167055,8,N,11,unknown,14,/Users/dan/Projects/callab/tunkel/Negation2.0/Experiment2/contrastB/production-results/3ZLW647WALKCFE39ALF5X72G8FR32J-3QECW5O0KIQCZCIKXLSW1B4H0UJ5T5.json,2,standard,FALSE
3783.005,black toy thing,NA,172694,9,E,11,unknown,14,/Users/dan/Projects/callab/tunkel/Negation2.0/Experiment2/contrastB/production-results/3ZLW647WALKCFE39ALF5X72G8FR32J-3QECW5O0KIQCZCIKXLSW1B4H0UJ5T5.json,3,standard,FALSE
3201.985,ring,NA,178003,10,11,F,known,14,/Users/dan/Projects/callab/tunkel/Negation2.0/Experiment2/contrastB/production-results/3ZLW647WALKCFE39ALF5X72G8FR32J-3QECW5O0KIQCZCIKXLSW1B4H0UJ5T5.json,1,switch,FALSE
3489.1,flower,NA,183096,11,10,L,known,14,/Users/dan/Projects/callab/tunkel/Negation2.0/Experiment2/contrastB/production-results/3ZLW647WALKCFE39ALF5X72G8FR32J-3QECW5O0KIQCZCIKXLSW1B4H0UJ5T5.json,1,standard,FALSE
6520.51,drum toy,NA,190472,12,A,12,unknown,14,/Users/dan/Projects/callab/tunkel/Negation2.0/Experiment2/contrastB/production-results/3ZLW647WALKCFE39ALF5X72G8FR32J-3QECW5O0KIQCZCIKXLSW1B4H0UJ5T5.json,1,standard,FALSE
5372.875,blimp toy,NA,197950,13,H,16,unknown,14,/Users/dan/Projects/callab/tunkel/Negation2.0/Experiment2/contrastB/production-results/3ZLW647WALKCFE39ALF5X72G8FR32J-3QECW5O0KIQCZCIKXLSW1B4H0UJ5T5.json,1,standard,FALSE
3148.815,tree,NA,203204,14,4,J,known,14,/Users/dan/Projects/callab/tunkel/Negation2.0/Experiment2/contrastB/production-results/3ZLW647WALKCFE39ALF5X72G8FR32J-3QECW5O0KIQCZCIKXLSW1B4H0UJ5T5.json,1,standard,FALSE
2867.58,cup,NA,207676,15,2,M,known,14,/Users/dan/Projects/callab/tunkel/Negation2.0/Experiment2/contrastB/production-results/3ZLW647WALKCFE39ALF5X72G8FR32J-3QECW5O0KIQCZCIKXLSW1B4H0UJ5T5.json,1,standard,FALSE
2630.845,cup,NA,211412,16,1,M,known,14,/Users/dan/Projects/callab/tunkel/Negation2.0/Experiment2/contrastB/production-results/3ZLW647WALKCFE39ALF5X72G8FR32J-3QECW5O0KIQCZCIKXLSW1B4H0UJ5T5.json,2,standard,FALSE
2508.765,cup,NA,215276,17,9,M,known,14,/Users/dan/Projects/callab/tunkel/Negation2.0/Experiment2/contrastB/production-results/3ZLW647WALKCFE39ALF5X72G8FR32J-3QECW5O0KIQCZCIKXLSW1B4H0UJ5T5.json,3,standard,FALSE
8701.03,grey cube things,NA,225832,18,M,15,unknown,14,/Users/dan/Projects/callab/tunkel/Negation2.0/Experiment2/contrastB/production-results/3ZLW647WALKCFE39ALF5X72G8FR32J-3QECW5O0KIQCZCIKXLSW1B4H0UJ5T5.json,1,switch,FALSE
3470,Flower,NA,145818,3,12,L,known,15,/Users/dan/Projects/callab/tunkel/Negation2.0/Experiment2/contrastA/production-results/338GLSUI43000P00OVVDPY4H9ZUSFJ-392CY0QWG2G4UFY9P4AIICWUPH84II.json,1,standard,FALSE
8523,Not the tree,NA,157443,4,J,6,unknown,15,/Users/dan/Projects/callab/tunkel/Negation2.0/Experiment2/contrastA/production-results/338GLSUI43000P00OVVDPY4H9ZUSFJ-392CY0QWG2G4UFY9P4AIICWUPH84II.json,1,standard,TRUE
4462,Not the car,NA,164508,5,I,3,unknown,15,/Users/dan/Projects/callab/tunkel/Negation2.0/Experiment2/contrastA/production-results/338GLSUI43000P00OVVDPY4H9ZUSFJ-392CY0QWG2G4UFY9P4AIICWUPH84II.json,1,standard,TRUE
3180,Ring,NA,170290,6,11,F,known,15,/Users/dan/Projects/callab/tunkel/Negation2.0/Experiment2/contrastA/production-results/338GLSUI43000P00OVVDPY4H9ZUSFJ-392CY0QWG2G4UFY9P4AIICWUPH84II.json,1,standard,FALSE
7430,Die,NA,179071,7,15,H,known,15,/Users/dan/Projects/callab/tunkel/Negation2.0/Experiment2/contrastA/production-results/338GLSUI43000P00OVVDPY4H9ZUSFJ-392CY0QWG2G4UFY9P4AIICWUPH84II.json,1,standard,FALSE
12139,Die a single from a pair of dice,NA,194314,8,9,H,known,15,/Users/dan/Projects/callab/tunkel/Negation2.0/Experiment2/contrastA/production-results/338GLSUI43000P00OVVDPY4H9ZUSFJ-392CY0QWG2G4UFY9P4AIICWUPH84II.json,2,standard,FALSE
7487,die,NA,203654,9,4,H,known,15,/Users/dan/Projects/callab/tunkel/Negation2.0/Experiment2/contrastA/production-results/338GLSUI43000P00OVVDPY4H9ZUSFJ-392CY0QWG2G4UFY9P4AIICWUPH84II.json,3,standard,FALSE
11456,Barbelllike object,NA,216212,10,H,5,unknown,15,/Users/dan/Projects/callab/tunkel/Negation2.0/Experiment2/contrastA/production-results/338GLSUI43000P00OVVDPY4H9ZUSFJ-392CY0QWG2G4UFY9P4AIICWUPH84II.json,1,switch,FALSE
7400,Pump,NA,224464,11,K,10,unknown,15,/Users/dan/Projects/callab/tunkel/Negation2.0/Experiment2/contrastA/production-results/338GLSUI43000P00OVVDPY4H9ZUSFJ-392CY0QWG2G4UFY9P4AIICWUPH84II.json,1,standard,FALSE
2972,Crab,NA,230038,12,16,N,known,15,/Users/dan/Projects/callab/tunkel/Negation2.0/Experiment2/contrastA/production-results/338GLSUI43000P00OVVDPY4H9ZUSFJ-392CY0QWG2G4UFY9P4AIICWUPH84II.json,1,standard,FALSE
9215,Not the fork,NA,241855,13,G,8,unknown,15,/Users/dan/Projects/callab/tunkel/Negation2.0/Experiment2/contrastA/production-results/338GLSUI43000P00OVVDPY4H9ZUSFJ-392CY0QWG2G4UFY9P4AIICWUPH84II.json,1,standard,TRUE
3212,Mug,NA,246670,14,2,M,known,15,/Users/dan/Projects/callab/tunkel/Negation2.0/Experiment2/contrastA/production-results/338GLSUI43000P00OVVDPY4H9ZUSFJ-392CY0QWG2G4UFY9P4AIICWUPH84II.json,1,standard,FALSE
6781,Spiky dog toy,NA,255304,15,C,1,unknown,15,/Users/dan/Projects/callab/tunkel/Negation2.0/Experiment2/contrastA/production-results/338GLSUI43000P00OVVDPY4H9ZUSFJ-392CY0QWG2G4UFY9P4AIICWUPH84II.json,1,standard,FALSE
7144,Spiky dog toy,NA,263799,16,B,1,unknown,15,/Users/dan/Projects/callab/tunkel/Negation2.0/Experiment2/contrastA/production-results/338GLSUI43000P00OVVDPY4H9ZUSFJ-392CY0QWG2G4UFY9P4AIICWUPH84II.json,2,standard,FALSE
3006,Spiky dog toy,NA,268907,17,D,1,unknown,15,/Users/dan/Projects/callab/tunkel/Negation2.0/Experiment2/contrastA/production-results/338GLSUI43000P00OVVDPY4H9ZUSFJ-392CY0QWG2G4UFY9P4AIICWUPH84II.json,3,standard,FALSE
3792,Apple,NA,274554,18,1,A,known,15,/Users/dan/Projects/callab/tunkel/Negation2.0/Experiment2/contrastA/production-results/338GLSUI43000P00OVVDPY4H9ZUSFJ-392CY0QWG2G4UFY9P4AIICWUPH84II.json,1,switch,FALSE
4963.505,merow,NA,81031,3,2,B,known,16,/Users/dan/Projects/callab/tunkel/Negation2.0/Experiment2/contrastA/production-results/3JUDR1D0D6G4MF9B8WR1AFVRI74Q28-3NGI5ARFTUUFJ2OUFHH0TBQ3ZBSP11.json,1,standard,FALSE
5917.245,hot air,NA,89054,4,D,16,unknown,16,/Users/dan/Projects/callab/tunkel/Negation2.0/Experiment2/contrastA/production-results/3JUDR1D0D6G4MF9B8WR1AFVRI74Q28-3NGI5ARFTUUFJ2OUFHH0TBQ3ZBSP11.json,1,standard,FALSE
7256.375,crown,NA,98167,5,A,3,unknown,16,/Users/dan/Projects/callab/tunkel/Negation2.0/Experiment2/contrastA/production-results/3JUDR1D0D6G4MF9B8WR1AFVRI74Q28-3NGI5ARFTUUFJ2OUFHH0TBQ3ZBSP11.json,1,standard,FALSE
3279.305,dice,NA,104055,6,9,H,known,16,/Users/dan/Projects/callab/tunkel/Negation2.0/Experiment2/contrastA/production-results/3JUDR1D0D6G4MF9B8WR1AFVRI74Q28-3NGI5ARFTUUFJ2OUFHH0TBQ3ZBSP11.json,1,standard,FALSE
2248.7,ring,NA,107160,7,11,F,known,16,/Users/dan/Projects/callab/tunkel/Negation2.0/Experiment2/contrastA/production-results/3JUDR1D0D6G4MF9B8WR1AFVRI74Q28-3NGI5ARFTUUFJ2OUFHH0TBQ3ZBSP11.json,1,standard,FALSE
2398.775,ring,NA,110415,8,1,F,known,16,/Users/dan/Projects/callab/tunkel/Negation2.0/Experiment2/contrastA/production-results/3JUDR1D0D6G4MF9B8WR1AFVRI74Q28-3NGI5ARFTUUFJ2OUFHH0TBQ3ZBSP11.json,2,standard,FALSE
2133.995,ring,NA,115655,9,8,F,known,16,/Users/dan/Projects/callab/tunkel/Negation2.0/Experiment2/contrastA/production-results/3JUDR1D0D6G4MF9B8WR1AFVRI74Q28-3NGI5ARFTUUFJ2OUFHH0TBQ3ZBSP11.json,3,standard,FALSE
6693.11,fuzzy donut,NA,124455,10,F,4,unknown,16,/Users/dan/Projects/callab/tunkel/Negation2.0/Experiment2/contrastA/production-results/3JUDR1D0D6G4MF9B8WR1AFVRI74Q28-3NGI5ARFTUUFJ2OUFHH0TBQ3ZBSP11.json,1,switch,FALSE
4077.43,blocks,NA,131639,11,J,15,unknown,16,/Users/dan/Projects/callab/tunkel/Negation2.0/Experiment2/contrastA/production-results/3JUDR1D0D6G4MF9B8WR1AFVRI74Q28-3NGI5ARFTUUFJ2OUFHH0TBQ3ZBSP11.json,1,standard,FALSE
4009.67,butterfly,NA,137255,12,12,K,known,16,/Users/dan/Projects/callab/tunkel/Negation2.0/Experiment2/contrastA/production-results/3JUDR1D0D6G4MF9B8WR1AFVRI74Q28-3NGI5ARFTUUFJ2OUFHH0TBQ3ZBSP11.json,1,standard,FALSE
3530.71,barbell,NA,142143,13,G,5,unknown,16,/Users/dan/Projects/callab/tunkel/Negation2.0/Experiment2/contrastA/production-results/3JUDR1D0D6G4MF9B8WR1AFVRI74Q28-3NGI5ARFTUUFJ2OUFHH0TBQ3ZBSP11.json,1,standard,FALSE
5920.725,cup,NA,148920,14,10,M,known,16,/Users/dan/Projects/callab/tunkel/Negation2.0/Experiment2/contrastA/production-results/3JUDR1D0D6G4MF9B8WR1AFVRI74Q28-3NGI5ARFTUUFJ2OUFHH0TBQ3ZBSP11.json,1,standard,FALSE
9705.25,weird doohicky,NA,161234,15,N,7,unknown,16,/Users/dan/Projects/callab/tunkel/Negation2.0/Experiment2/contrastA/production-results/3JUDR1D0D6G4MF9B8WR1AFVRI74Q28-3NGI5ARFTUUFJ2OUFHH0TBQ3ZBSP11.json,1,standard,FALSE
4899.42,weird doohicky,NA,169240,16,E,7,unknown,16,/Users/dan/Projects/callab/tunkel/Negation2.0/Experiment2/contrastA/production-results/3JUDR1D0D6G4MF9B8WR1AFVRI74Q28-3NGI5ARFTUUFJ2OUFHH0TBQ3ZBSP11.json,2,standard,FALSE
5060.09,tunnel,NA,175408,17,I,7,unknown,16,/Users/dan/Projects/callab/tunkel/Negation2.0/Experiment2/contrastA/production-results/3JUDR1D0D6G4MF9B8WR1AFVRI74Q28-3NGI5ARFTUUFJ2OUFHH0TBQ3ZBSP11.json,3,standard,FALSE
3785.915,shoe,NA,180808,18,7,C,known,16,/Users/dan/Projects/callab/tunkel/Negation2.0/Experiment2/contrastA/production-results/3JUDR1D0D6G4MF9B8WR1AFVRI74Q28-3NGI5ARFTUUFJ2OUFHH0TBQ3ZBSP11.json,1,switch,FALSE
15031.215,shape,NA,115165,3,F,11,unknown,17,/Users/dan/Projects/callab/tunkel/Negation2.0/Experiment2/contrastB/production-results/3ZLW647WALKCFE39ALF5X72G8FR32J-33M4IA01QHQ8LGP2Z26WTFUJ58VXRT.json,1,standard,FALSE
5045.26,flower,NA,121575,4,3,L,known,17,/Users/dan/Projects/callab/tunkel/Negation2.0/Experiment2/contrastB/production-results/3ZLW647WALKCFE39ALF5X72G8FR32J-33M4IA01QHQ8LGP2Z26WTFUJ58VXRT.json,1,standard,FALSE
10969.745,not a fork,NA,135155,5,G,16,unknown,17,/Users/dan/Projects/callab/tunkel/Negation2.0/Experiment2/contrastB/production-results/3ZLW647WALKCFE39ALF5X72G8FR32J-33M4IA01QHQ8LGP2Z26WTFUJ58VXRT.json,1,standard,TRUE
3080.85,cat,NA,140095,6,1,B,known,17,/Users/dan/Projects/callab/tunkel/Negation2.0/Experiment2/contrastB/production-results/3ZLW647WALKCFE39ALF5X72G8FR32J-33M4IA01QHQ8LGP2Z26WTFUJ58VXRT.json,1,standard,FALSE
13744.085,flower,NA,154696,7,J,8,unknown,17,/Users/dan/Projects/callab/tunkel/Negation2.0/Experiment2/contrastB/production-results/3ZLW647WALKCFE39ALF5X72G8FR32J-33M4IA01QHQ8LGP2Z26WTFUJ58VXRT.json,1,standard,FALSE
8617.945,not a car,NA,164923,8,I,8,unknown,17,/Users/dan/Projects/callab/tunkel/Negation2.0/Experiment2/contrastB/production-results/3ZLW647WALKCFE39ALF5X72G8FR32J-33M4IA01QHQ8LGP2Z26WTFUJ58VXRT.json,2,standard,TRUE
11073.69,art,NA,177102,9,A,8,unknown,17,/Users/dan/Projects/callab/tunkel/Negation2.0/Experiment2/contrastB/production-results/3ZLW647WALKCFE39ALF5X72G8FR32J-33M4IA01QHQ8LGP2Z26WTFUJ58VXRT.json,3,standard,FALSE
5786.05,shoe,NA,184750,10,8,C,known,17,/Users/dan/Projects/callab/tunkel/Negation2.0/Experiment2/contrastB/production-results/3ZLW647WALKCFE39ALF5X72G8FR32J-33M4IA01QHQ8LGP2Z26WTFUJ58VXRT.json,1,switch,FALSE
6615.755,chair,NA,192222,11,7,E,known,17,/Users/dan/Projects/callab/tunkel/Negation2.0/Experiment2/contrastB/production-results/3ZLW647WALKCFE39ALF5X72G8FR32J-33M4IA01QHQ8LGP2Z26WTFUJ58VXRT.json,1,standard,FALSE
9285.705,object,NA,202365,12,D,6,unknown,17,/Users/dan/Projects/callab/tunkel/Negation2.0/Experiment2/contrastB/production-results/3ZLW647WALKCFE39ALF5X72G8FR32J-33M4IA01QHQ8LGP2Z26WTFUJ58VXRT.json,1,standard,FALSE
6989.85,donut,NA,210966,13,M,4,unknown,17,/Users/dan/Projects/callab/tunkel/Negation2.0/Experiment2/contrastB/production-results/3ZLW647WALKCFE39ALF5X72G8FR32J-33M4IA01QHQ8LGP2Z26WTFUJ58VXRT.json,1,standard,FALSE
4001.59,dice,NA,215829,14,12,H,known,17,/Users/dan/Projects/callab/tunkel/Negation2.0/Experiment2/contrastB/production-results/3ZLW647WALKCFE39ALF5X72G8FR32J-33M4IA01QHQ8LGP2Z26WTFUJ58VXRT.json,1,standard,FALSE
2775.24,crab,NA,220465,15,10,N,known,17,/Users/dan/Projects/callab/tunkel/Negation2.0/Experiment2/contrastB/production-results/3ZLW647WALKCFE39ALF5X72G8FR32J-33M4IA01QHQ8LGP2Z26WTFUJ58VXRT.json,1,standard,FALSE
2542.69,crab,NA,224368,16,5,N,known,17,/Users/dan/Projects/callab/tunkel/Negation2.0/Experiment2/contrastB/production-results/3ZLW647WALKCFE39ALF5X72G8FR32J-33M4IA01QHQ8LGP2Z26WTFUJ58VXRT.json,2,standard,FALSE
2219.22,crab,NA,227699,17,2,N,known,17,/Users/dan/Projects/callab/tunkel/Negation2.0/Experiment2/contrastB/production-results/3ZLW647WALKCFE39ALF5X72G8FR32J-33M4IA01QHQ8LGP2Z26WTFUJ58VXRT.json,3,standard,FALSE
4361.18,object,NA,233920,18,N,9,unknown,17,/Users/dan/Projects/callab/tunkel/Negation2.0/Experiment2/contrastB/production-results/3ZLW647WALKCFE39ALF5X72G8FR32J-33M4IA01QHQ8LGP2Z26WTFUJ58VXRT.json,1,switch,FALSE
8306.27,bow,NA,99031,3,E,8,unknown,18,/Users/dan/Projects/callab/tunkel/Negation2.0/Experiment2/contrastB/production-results/3NFWQRSHVE3XAKR9TV1W0KLELO1FGN-3Y4W8Q93L09MGH12HMAU05GUAWWVDI.json,1,standard,FALSE
2082.6,cup,NA,104231,4,3,M,known,18,/Users/dan/Projects/callab/tunkel/Negation2.0/Experiment2/contrastB/production-results/3NFWQRSHVE3XAKR9TV1W0KLELO1FGN-3Y4W8Q93L09MGH12HMAU05GUAWWVDI.json,1,standard,FALSE
4826.975,tool,NA,109924,5,A,9,unknown,18,/Users/dan/Projects/callab/tunkel/Negation2.0/Experiment2/contrastB/production-results/3NFWQRSHVE3XAKR9TV1W0KLELO1FGN-3Y4W8Q93L09MGH12HMAU05GUAWWVDI.json,1,standard,FALSE
5392.235,car,NA,116182,6,10,I,known,18,/Users/dan/Projects/callab/tunkel/Negation2.0/Experiment2/contrastB/production-results/3NFWQRSHVE3XAKR9TV1W0KLELO1FGN-3Y4W8Q93L09MGH12HMAU05GUAWWVDI.json,1,standard,FALSE
4059.875,blimp,NA,121360,7,D,16,unknown,18,/Users/dan/Projects/callab/tunkel/Negation2.0/Experiment2/contrastB/production-results/3NFWQRSHVE3XAKR9TV1W0KLELO1FGN-3Y4W8Q93L09MGH12HMAU05GUAWWVDI.json,1,standard,FALSE
1954.025,blimp,NA,124444,8,H,16,unknown,18,/Users/dan/Projects/callab/tunkel/Negation2.0/Experiment2/contrastB/production-results/3NFWQRSHVE3XAKR9TV1W0KLELO1FGN-3Y4W8Q93L09MGH12HMAU05GUAWWVDI.json,2,standard,FALSE
1534.06,blimp,NA,127347,9,F,16,unknown,18,/Users/dan/Projects/callab/tunkel/Negation2.0/Experiment2/contrastB/production-results/3NFWQRSHVE3XAKR9TV1W0KLELO1FGN-3Y4W8Q93L09MGH12HMAU05GUAWWVDI.json,3,standard,FALSE
1611.06,tree,NA,131576,10,16,J,known,18,/Users/dan/Projects/callab/tunkel/Negation2.0/Experiment2/contrastB/production-results/3NFWQRSHVE3XAKR9TV1W0KLELO1FGN-3Y4W8Q93L09MGH12HMAU05GUAWWVDI.json,1,switch,FALSE
1376.295,shoe,NA,133821,11,1,C,known,18,/Users/dan/Projects/callab/tunkel/Negation2.0/Experiment2/contrastB/production-results/3NFWQRSHVE3XAKR9TV1W0KLELO1FGN-3Y4W8Q93L09MGH12HMAU05GUAWWVDI.json,1,standard,FALSE
3723.715,not cat,NA,140166,12,B,4,unknown,18,/Users/dan/Projects/callab/tunkel/Negation2.0/Experiment2/contrastB/production-results/3NFWQRSHVE3XAKR9TV1W0KLELO1FGN-3Y4W8Q93L09MGH12HMAU05GUAWWVDI.json,1,standard,TRUE
3176.92,not flower,NA,145209,13,L,12,unknown,18,/Users/dan/Projects/callab/tunkel/Negation2.0/Experiment2/contrastB/production-results/3NFWQRSHVE3XAKR9TV1W0KLELO1FGN-3Y4W8Q93L09MGH12HMAU05GUAWWVDI.json,1,standard,TRUE
3038.945,butterfly,NA,149123,14,2,K,known,18,/Users/dan/Projects/callab/tunkel/Negation2.0/Experiment2/contrastB/production-results/3NFWQRSHVE3XAKR9TV1W0KLELO1FGN-3Y4W8Q93L09MGH12HMAU05GUAWWVDI.json,1,standard,FALSE
1328.005,fork,NA,151566,15,5,G,known,18,/Users/dan/Projects/callab/tunkel/Negation2.0/Experiment2/contrastB/production-results/3NFWQRSHVE3XAKR9TV1W0KLELO1FGN-3Y4W8Q93L09MGH12HMAU05GUAWWVDI.json,1,standard,FALSE
1132,fork,NA,154820,16,7,G,known,18,/Users/dan/Projects/callab/tunkel/Negation2.0/Experiment2/contrastB/production-results/3NFWQRSHVE3XAKR9TV1W0KLELO1FGN-3Y4W8Q93L09MGH12HMAU05GUAWWVDI.json,2,standard,FALSE
1446.82,fork,NA,157132,17,15,G,known,18,/Users/dan/Projects/callab/tunkel/Negation2.0/Experiment2/contrastB/production-results/3NFWQRSHVE3XAKR9TV1W0KLELO1FGN-3Y4W8Q93L09MGH12HMAU05GUAWWVDI.json,3,standard,FALSE
2297.025,not fork,NA,161055,18,G,11,unknown,18,/Users/dan/Projects/callab/tunkel/Negation2.0/Experiment2/contrastB/production-results/3NFWQRSHVE3XAKR9TV1W0KLELO1FGN-3Y4W8Q93L09MGH12HMAU05GUAWWVDI.json,1,switch,TRUE
27111,its a toy,NA,1634797,3,D,16,unknown,19,/Users/dan/Projects/callab/tunkel/Negation2.0/Experiment2/contrastB/production-results/3NFWQRSHVE3XAKR9TV1W0KLELO1FGN-3IKZ72A5B5566W6P61JTEOP206ANF4.json,1,standard,FALSE
22329,chair,NA,1659733,4,15,E,known,19,/Users/dan/Projects/callab/tunkel/Negation2.0/Experiment2/contrastB/production-results/3NFWQRSHVE3XAKR9TV1W0KLELO1FGN-3IKZ72A5B5566W6P61JTEOP206ANF4.json,1,standard,FALSE
39367,glass,NA,1700206,5,J,2,unknown,19,/Users/dan/Projects/callab/tunkel/Negation2.0/Experiment2/contrastB/production-results/3NFWQRSHVE3XAKR9TV1W0KLELO1FGN-3IKZ72A5B5566W6P61JTEOP206ANF4.json,1,standard,FALSE
16312,cat,NA,1717623,6,4,B,known,19,/Users/dan/Projects/callab/tunkel/Negation2.0/Experiment2/contrastB/production-results/3NFWQRSHVE3XAKR9TV1W0KLELO1FGN-3IKZ72A5B5566W6P61JTEOP206ANF4.json,1,standard,FALSE
39322,unknown,NA,1757800,7,L,3,unknown,19,/Users/dan/Projects/callab/tunkel/Negation2.0/Experiment2/contrastB/production-results/3NFWQRSHVE3XAKR9TV1W0KLELO1FGN-3IKZ72A5B5566W6P61JTEOP206ANF4.json,1,standard,FALSE
7773,unknown,NA,1766928,8,H,3,unknown,19,/Users/dan/Projects/callab/tunkel/Negation2.0/Experiment2/contrastB/production-results/3NFWQRSHVE3XAKR9TV1W0KLELO1FGN-3IKZ72A5B5566W6P61JTEOP206ANF4.json,2,standard,FALSE
35392,shapeless vessel,NA,1804176,9,I,3,unknown,19,/Users/dan/Projects/callab/tunkel/Negation2.0/Experiment2/contrastB/production-results/3NFWQRSHVE3XAKR9TV1W0KLELO1FGN-3IKZ72A5B5566W6P61JTEOP206ANF4.json,3,standard,FALSE
16907,fork,NA,1822938,10,3,G,known,19,/Users/dan/Projects/callab/tunkel/Negation2.0/Experiment2/contrastB/production-results/3NFWQRSHVE3XAKR9TV1W0KLELO1FGN-3IKZ72A5B5566W6P61JTEOP206ANF4.json,1,switch,FALSE
19927,butterfly,NA,1844969,11,11,K,known,19,/Users/dan/Projects/callab/tunkel/Negation2.0/Experiment2/contrastB/production-results/3NFWQRSHVE3XAKR9TV1W0KLELO1FGN-3IKZ72A5B5566W6P61JTEOP206ANF4.json,1,standard,FALSE
22144,tumbles,NA,1868217,12,C,5,unknown,19,/Users/dan/Projects/callab/tunkel/Negation2.0/Experiment2/contrastB/production-results/3NFWQRSHVE3XAKR9TV1W0KLELO1FGN-3IKZ72A5B5566W6P61JTEOP206ANF4.json,1,standard,FALSE
8123,toy,NA,1877194,13,N,9,unknown,19,/Users/dan/Projects/callab/tunkel/Negation2.0/Experiment2/contrastB/production-results/3NFWQRSHVE3XAKR9TV1W0KLELO1FGN-3IKZ72A5B5566W6P61JTEOP206ANF4.json,1,standard,FALSE
4900,ring,NA,1883451,14,10,F,known,19,/Users/dan/Projects/callab/tunkel/Negation2.0/Experiment2/contrastB/production-results/3NFWQRSHVE3XAKR9TV1W0KLELO1FGN-3IKZ72A5B5566W6P61JTEOP206ANF4.json,1,standard,FALSE
7708,cup,NA,1892762,15,1,M,known,19,/Users/dan/Projects/callab/tunkel/Negation2.0/Experiment2/contrastB/production-results/3NFWQRSHVE3XAKR9TV1W0KLELO1FGN-3IKZ72A5B5566W6P61JTEOP206ANF4.json,1,standard,FALSE
7082,cup,NA,1901702,16,6,M,known,19,/Users/dan/Projects/callab/tunkel/Negation2.0/Experiment2/contrastB/production-results/3NFWQRSHVE3XAKR9TV1W0KLELO1FGN-3IKZ72A5B5566W6P61JTEOP206ANF4.json,2,standard,FALSE
5190,mug,NA,1907996,17,7,M,known,19,/Users/dan/Projects/callab/tunkel/Negation2.0/Experiment2/contrastB/production-results/3NFWQRSHVE3XAKR9TV1W0KLELO1FGN-3IKZ72A5B5566W6P61JTEOP206ANF4.json,3,standard,FALSE
10154,unknown,NA,1920003,18,M,8,unknown,19,/Users/dan/Projects/callab/tunkel/Negation2.0/Experiment2/contrastB/production-results/3NFWQRSHVE3XAKR9TV1W0KLELO1FGN-3IKZ72A5B5566W6P61JTEOP206ANF4.json,1,switch,FALSE
3022.705,dice,NA,56363,3,5,H,known,20,/Users/dan/Projects/callab/tunkel/Negation2.0/Experiment2/contrastA/production-results/3JUDR1D0D6G4MF9B8WR1AFVRI74Q28-3IAEQB9FMF9ZV6177WFQM7Z8H5RWDM.json,1,standard,FALSE
3162.67,art,NA,61396,4,A,9,unknown,20,/Users/dan/Projects/callab/tunkel/Negation2.0/Experiment2/contrastA/production-results/3JUDR1D0D6G4MF9B8WR1AFVRI74Q28-3IAEQB9FMF9ZV6177WFQM7Z8H5RWDM.json,1,standard,FALSE
4248.48,snowboard,NA,67511,5,D,7,unknown,20,/Users/dan/Projects/callab/tunkel/Negation2.0/Experiment2/contrastA/production-results/3JUDR1D0D6G4MF9B8WR1AFVRI74Q28-3IAEQB9FMF9ZV6177WFQM7Z8H5RWDM.json,1,standard,FALSE
15390.075,chair,NA,84523,6,3,E,known,20,/Users/dan/Projects/callab/tunkel/Negation2.0/Experiment2/contrastA/production-results/3JUDR1D0D6G4MF9B8WR1AFVRI74Q28-3IAEQB9FMF9ZV6177WFQM7Z8H5RWDM.json,1,standard,FALSE
3011.34,mug,NA,89651,7,2,M,known,20,/Users/dan/Projects/callab/tunkel/Negation2.0/Experiment2/contrastA/production-results/3JUDR1D0D6G4MF9B8WR1AFVRI74Q28-3IAEQB9FMF9ZV6177WFQM7Z8H5RWDM.json,1,standard,FALSE
2786.555,mug,NA,93813,8,1,M,known,20,/Users/dan/Projects/callab/tunkel/Negation2.0/Experiment2/contrastA/production-results/3JUDR1D0D6G4MF9B8WR1AFVRI74Q28-3IAEQB9FMF9ZV6177WFQM7Z8H5RWDM.json,2,standard,FALSE
2397.17,mug,NA,97827,9,16,M,known,20,/Users/dan/Projects/callab/tunkel/Negation2.0/Experiment2/contrastA/production-results/3JUDR1D0D6G4MF9B8WR1AFVRI74Q28-3IAEQB9FMF9ZV6177WFQM7Z8H5RWDM.json,3,standard,FALSE
7714.025,plunger,NA,107410,10,M,10,unknown,20,/Users/dan/Projects/callab/tunkel/Negation2.0/Experiment2/contrastA/production-results/3JUDR1D0D6G4MF9B8WR1AFVRI74Q28-3IAEQB9FMF9ZV6177WFQM7Z8H5RWDM.json,1,switch,FALSE
2849.21,art,NA,111883,11,C,12,unknown,20,/Users/dan/Projects/callab/tunkel/Negation2.0/Experiment2/contrastA/production-results/3JUDR1D0D6G4MF9B8WR1AFVRI74Q28-3IAEQB9FMF9ZV6177WFQM7Z8H5RWDM.json,1,standard,FALSE
5242.335,fork,NA,119260,12,11,G,known,20,/Users/dan/Projects/callab/tunkel/Negation2.0/Experiment2/contrastA/production-results/3JUDR1D0D6G4MF9B8WR1AFVRI74Q28-3IAEQB9FMF9ZV6177WFQM7Z8H5RWDM.json,1,standard,FALSE
3598.8,blocks,NA,123981,13,K,15,unknown,20,/Users/dan/Projects/callab/tunkel/Negation2.0/Experiment2/contrastA/production-results/3JUDR1D0D6G4MF9B8WR1AFVRI74Q28-3IAEQB9FMF9ZV6177WFQM7Z8H5RWDM.json,1,standard,FALSE
2610.28,cat,NA,127714,14,6,B,known,20,/Users/dan/Projects/callab/tunkel/Negation2.0/Experiment2/contrastA/production-results/3JUDR1D0D6G4MF9B8WR1AFVRI74Q28-3IAEQB9FMF9ZV6177WFQM7Z8H5RWDM.json,1,standard,FALSE
4557.84,ball,NA,134148,15,I,8,unknown,20,/Users/dan/Projects/callab/tunkel/Negation2.0/Experiment2/contrastA/production-results/3JUDR1D0D6G4MF9B8WR1AFVRI74Q28-3IAEQB9FMF9ZV6177WFQM7Z8H5RWDM.json,1,standard,FALSE
3119.05,ball,NA,139135,16,L,8,unknown,20,/Users/dan/Projects/callab/tunkel/Negation2.0/Experiment2/contrastA/production-results/3JUDR1D0D6G4MF9B8WR1AFVRI74Q28-3IAEQB9FMF9ZV6177WFQM7Z8H5RWDM.json,2,standard,FALSE
2569.59,ball,NA,142571,17,N,8,unknown,20,/Users/dan/Projects/callab/tunkel/Negation2.0/Experiment2/contrastA/production-results/3JUDR1D0D6G4MF9B8WR1AFVRI74Q28-3IAEQB9FMF9ZV6177WFQM7Z8H5RWDM.json,3,standard,FALSE
2838.67,ring,NA,147277,18,8,F,known,20,/Users/dan/Projects/callab/tunkel/Negation2.0/Experiment2/contrastA/production-results/3JUDR1D0D6G4MF9B8WR1AFVRI74Q28-3IAEQB9FMF9ZV6177WFQM7Z8H5RWDM.json,1,switch,FALSE
7071.715,shape,NA,167639,3,N,11,unknown,21,/Users/dan/Projects/callab/tunkel/Negation2.0/Experiment2/contrastB/production-results/3NFWQRSHVE3XAKR9TV1W0KLELO1FGN-3MX2NQ3YCAJJGTR42VTTQEPNDQ75XO.json,1,standard,FALSE
3151.92,pen,NA,172895,4,15,D,known,21,/Users/dan/Projects/callab/tunkel/Negation2.0/Experiment2/contrastB/production-results/3NFWQRSHVE3XAKR9TV1W0KLELO1FGN-3MX2NQ3YCAJJGTR42VTTQEPNDQ75XO.json,1,standard,FALSE
10504.835,spiked balls,NA,184506,5,A,1,unknown,21,/Users/dan/Projects/callab/tunkel/Negation2.0/Experiment2/contrastB/production-results/3NFWQRSHVE3XAKR9TV1W0KLELO1FGN-3MX2NQ3YCAJJGTR42VTTQEPNDQ75XO.json,1,standard,FALSE
3287.49,shoe,NA,190897,6,9,C,known,21,/Users/dan/Projects/callab/tunkel/Negation2.0/Experiment2/contrastB/production-results/3NFWQRSHVE3XAKR9TV1W0KLELO1FGN-3MX2NQ3YCAJJGTR42VTTQEPNDQ75XO.json,1,standard,FALSE
12567.225,glove,NA,206568,7,E,3,unknown,21,/Users/dan/Projects/callab/tunkel/Negation2.0/Experiment2/contrastB/production-results/3NFWQRSHVE3XAKR9TV1W0KLELO1FGN-3MX2NQ3YCAJJGTR42VTTQEPNDQ75XO.json,1,standard,FALSE
10348.245,glove,NA,219520,8,F,3,unknown,21,/Users/dan/Projects/callab/tunkel/Negation2.0/Experiment2/contrastB/production-results/3NFWQRSHVE3XAKR9TV1W0KLELO1FGN-3MX2NQ3YCAJJGTR42VTTQEPNDQ75XO.json,2,standard,FALSE
3615.805,glove,NA,226239,9,J,3,unknown,21,/Users/dan/Projects/callab/tunkel/Negation2.0/Experiment2/contrastB/production-results/3NFWQRSHVE3XAKR9TV1W0KLELO1FGN-3MX2NQ3YCAJJGTR42VTTQEPNDQ75XO.json,3,standard,FALSE
2082.645,car,NA,229175,10,3,I,known,21,/Users/dan/Projects/callab/tunkel/Negation2.0/Experiment2/contrastB/production-results/3NFWQRSHVE3XAKR9TV1W0KLELO1FGN-3MX2NQ3YCAJJGTR42VTTQEPNDQ75XO.json,1,switch,FALSE
3300.37,mug,NA,234079,11,4,M,known,21,/Users/dan/Projects/callab/tunkel/Negation2.0/Experiment2/contrastB/production-results/3NFWQRSHVE3XAKR9TV1W0KLELO1FGN-3MX2NQ3YCAJJGTR42VTTQEPNDQ75XO.json,1,standard,FALSE
6802.2,clip,NA,242734,12,L,6,unknown,21,/Users/dan/Projects/callab/tunkel/Negation2.0/Experiment2/contrastB/production-results/3NFWQRSHVE3XAKR9TV1W0KLELO1FGN-3MX2NQ3YCAJJGTR42VTTQEPNDQ75XO.json,1,standard,FALSE
7312.1,balls,NA,253154,13,K,2,unknown,21,/Users/dan/Projects/callab/tunkel/Negation2.0/Experiment2/contrastB/production-results/3NFWQRSHVE3XAKR9TV1W0KLELO1FGN-3MX2NQ3YCAJJGTR42VTTQEPNDQ75XO.json,1,standard,FALSE
3155.68,fork,NA,257913,14,16,G,known,21,/Users/dan/Projects/callab/tunkel/Negation2.0/Experiment2/contrastB/production-results/3NFWQRSHVE3XAKR9TV1W0KLELO1FGN-3MX2NQ3YCAJJGTR42VTTQEPNDQ75XO.json,1,standard,FALSE
2792.26,die,NA,262809,15,5,H,known,21,/Users/dan/Projects/callab/tunkel/Negation2.0/Experiment2/contrastB/production-results/3NFWQRSHVE3XAKR9TV1W0KLELO1FGN-3MX2NQ3YCAJJGTR42VTTQEPNDQ75XO.json,1,standard,FALSE
2720.505,die,NA,267633,16,12,H,known,21,/Users/dan/Projects/callab/tunkel/Negation2.0/Experiment2/contrastB/production-results/3NFWQRSHVE3XAKR9TV1W0KLELO1FGN-3MX2NQ3YCAJJGTR42VTTQEPNDQ75XO.json,2,standard,FALSE
2895.42,die,NA,271632,17,10,H,known,21,/Users/dan/Projects/callab/tunkel/Negation2.0/Experiment2/contrastB/production-results/3NFWQRSHVE3XAKR9TV1W0KLELO1FGN-3MX2NQ3YCAJJGTR42VTTQEPNDQ75XO.json,3,standard,FALSE
7177.335,shape,NA,279664,18,H,8,unknown,21,/Users/dan/Projects/callab/tunkel/Negation2.0/Experiment2/contrastB/production-results/3NFWQRSHVE3XAKR9TV1W0KLELO1FGN-3MX2NQ3YCAJJGTR42VTTQEPNDQ75XO.json,1,switch,FALSE
7449.31,toy aeroplane,NA,1222419,3,M,5,unknown,22,/Users/dan/Projects/callab/tunkel/Negation2.0/Experiment2/contrastB/production-results/3NFWQRSHVE3XAKR9TV1W0KLELO1FGN-3E337GFOLAXCKW2KHLPBW9PE1LANG3.json,1,standard,FALSE
2528.475,car,NA,1227059,4,9,I,known,22,/Users/dan/Projects/callab/tunkel/Negation2.0/Experiment2/contrastB/production-results/3NFWQRSHVE3XAKR9TV1W0KLELO1FGN-3E337GFOLAXCKW2KHLPBW9PE1LANG3.json,1,standard,FALSE
3490.25,scrap,NA,1232657,5,D,8,unknown,22,/Users/dan/Projects/callab/tunkel/Negation2.0/Experiment2/contrastB/production-results/3NFWQRSHVE3XAKR9TV1W0KLELO1FGN-3E337GFOLAXCKW2KHLPBW9PE1LANG3.json,1,standard,FALSE
3604.365,chair,NA,1238369,6,6,E,known,22,/Users/dan/Projects/callab/tunkel/Negation2.0/Experiment2/contrastB/production-results/3NFWQRSHVE3XAKR9TV1W0KLELO1FGN-3E337GFOLAXCKW2KHLPBW9PE1LANG3.json,1,standard,FALSE
4900.88,toy,NA,1245378,7,N,16,unknown,22,/Users/dan/Projects/callab/tunkel/Negation2.0/Experiment2/contrastB/production-results/3NFWQRSHVE3XAKR9TV1W0KLELO1FGN-3E337GFOLAXCKW2KHLPBW9PE1LANG3.json,1,standard,FALSE
3030.15,toy,NA,1250265,8,K,16,unknown,22,/Users/dan/Projects/callab/tunkel/Negation2.0/Experiment2/contrastB/production-results/3NFWQRSHVE3XAKR9TV1W0KLELO1FGN-3E337GFOLAXCKW2KHLPBW9PE1LANG3.json,2,standard,FALSE
2646.845,toy,NA,1254770,9,A,16,unknown,22,/Users/dan/Projects/callab/tunkel/Negation2.0/Experiment2/contrastB/production-results/3NFWQRSHVE3XAKR9TV1W0KLELO1FGN-3E337GFOLAXCKW2KHLPBW9PE1LANG3.json,3,standard,FALSE
3234.06,shoe,NA,1260114,10,16,C,known,22,/Users/dan/Projects/callab/tunkel/Negation2.0/Experiment2/contrastB/production-results/3NFWQRSHVE3XAKR9TV1W0KLELO1FGN-3E337GFOLAXCKW2KHLPBW9PE1LANG3.json,1,switch,FALSE
3073.305,cat,NA,1264547,11,10,B,known,22,/Users/dan/Projects/callab/tunkel/Negation2.0/Experiment2/contrastB/production-results/3NFWQRSHVE3XAKR9TV1W0KLELO1FGN-3E337GFOLAXCKW2KHLPBW9PE1LANG3.json,1,standard,FALSE
3620,toy,NA,1270025,12,F,4,unknown,22,/Users/dan/Projects/callab/tunkel/Negation2.0/Experiment2/contrastB/production-results/3NFWQRSHVE3XAKR9TV1W0KLELO1FGN-3E337GFOLAXCKW2KHLPBW9PE1LANG3.json,1,standard,FALSE
3931.155,scrap,NA,1274817,13,J,11,unknown,22,/Users/dan/Projects/callab/tunkel/Negation2.0/Experiment2/contrastB/production-results/3NFWQRSHVE3XAKR9TV1W0KLELO1FGN-3E337GFOLAXCKW2KHLPBW9PE1LANG3.json,1,standard,FALSE
8865.32,sun flower,NA,1285289,14,2,L,known,22,/Users/dan/Projects/callab/tunkel/Negation2.0/Experiment2/contrastB/production-results/3NFWQRSHVE3XAKR9TV1W0KLELO1FGN-3E337GFOLAXCKW2KHLPBW9PE1LANG3.json,1,standard,FALSE
3473.61,fork,NA,1290873,15,1,G,known,22,/Users/dan/Projects/callab/tunkel/Negation2.0/Experiment2/contrastB/production-results/3NFWQRSHVE3XAKR9TV1W0KLELO1FGN-3E337GFOLAXCKW2KHLPBW9PE1LANG3.json,1,standard,FALSE
2888.875,fork,NA,1295873,16,12,G,known,22,/Users/dan/Projects/callab/tunkel/Negation2.0/Experiment2/contrastB/production-results/3NFWQRSHVE3XAKR9TV1W0KLELO1FGN-3E337GFOLAXCKW2KHLPBW9PE1LANG3.json,2,standard,FALSE
3825.045,fork,NA,1301809,17,7,G,known,22,/Users/dan/Projects/callab/tunkel/Negation2.0/Experiment2/contrastB/production-results/3NFWQRSHVE3XAKR9TV1W0KLELO1FGN-3E337GFOLAXCKW2KHLPBW9PE1LANG3.json,3,standard,FALSE
5692.455,toy,NA,1308611,18,G,15,unknown,22,/Users/dan/Projects/callab/tunkel/Negation2.0/Experiment2/contrastB/production-results/3NFWQRSHVE3XAKR9TV1W0KLELO1FGN-3E337GFOLAXCKW2KHLPBW9PE1LANG3.json,1,switch,FALSE
3400.59,tree,NA,93319,3,11,J,known,23,/Users/dan/Projects/callab/tunkel/Negation2.0/Experiment2/contrastA/production-results/3JUDR1D0D6G4MF9B8WR1AFVRI74Q28-35GCEFQ6I6D5794FPUTL827E7UDZ3O.json,1,standard,FALSE
5344.75,jet,NA,101769,4,I,16,unknown,23,/Users/dan/Projects/callab/tunkel/Negation2.0/Experiment2/contrastA/production-results/3JUDR1D0D6G4MF9B8WR1AFVRI74Q28-35GCEFQ6I6D5794FPUTL827E7UDZ3O.json,1,standard,FALSE
7935.955,art,NA,111810,5,F,8,unknown,23,/Users/dan/Projects/callab/tunkel/Negation2.0/Experiment2/contrastA/production-results/3JUDR1D0D6G4MF9B8WR1AFVRI74Q28-35GCEFQ6I6D5794FPUTL827E7UDZ3O.json,1,standard,FALSE
3232.97,flower,NA,116148,6,5,L,known,23,/Users/dan/Projects/callab/tunkel/Negation2.0/Experiment2/contrastA/production-results/3JUDR1D0D6G4MF9B8WR1AFVRI74Q28-35GCEFQ6I6D5794FPUTL827E7UDZ3O.json,1,standard,FALSE
4186.66,apple,NA,121440,7,12,A,known,23,/Users/dan/Projects/callab/tunkel/Negation2.0/Experiment2/contrastA/production-results/3JUDR1D0D6G4MF9B8WR1AFVRI74Q28-35GCEFQ6I6D5794FPUTL827E7UDZ3O.json,1,standard,FALSE
3319.48,apple,NA,126866,8,15,A,known,23,/Users/dan/Projects/callab/tunkel/Negation2.0/Experiment2/contrastA/production-results/3JUDR1D0D6G4MF9B8WR1AFVRI74Q28-35GCEFQ6I6D5794FPUTL827E7UDZ3O.json,2,standard,FALSE
3759.23,apple,NA,133739,9,1,A,known,23,/Users/dan/Projects/callab/tunkel/Negation2.0/Experiment2/contrastA/production-results/3JUDR1D0D6G4MF9B8WR1AFVRI74Q28-35GCEFQ6I6D5794FPUTL827E7UDZ3O.json,3,standard,FALSE
8113.67,sculpture,NA,143458,10,A,3,unknown,23,/Users/dan/Projects/callab/tunkel/Negation2.0/Experiment2/contrastA/production-results/3JUDR1D0D6G4MF9B8WR1AFVRI74Q28-35GCEFQ6I6D5794FPUTL827E7UDZ3O.json,1,switch,FALSE
5247.205,ski,NA,151312,11,H,7,unknown,23,/Users/dan/Projects/callab/tunkel/Negation2.0/Experiment2/contrastA/production-results/3JUDR1D0D6G4MF9B8WR1AFVRI74Q28-35GCEFQ6I6D5794FPUTL827E7UDZ3O.json,1,standard,FALSE
5762.86,butterfly,NA,158930,12,2,K,known,23,/Users/dan/Projects/callab/tunkel/Negation2.0/Experiment2/contrastA/production-results/3JUDR1D0D6G4MF9B8WR1AFVRI74Q28-35GCEFQ6I6D5794FPUTL827E7UDZ3O.json,1,standard,FALSE
4395,flower,NA,165431,13,C,4,unknown,23,/Users/dan/Projects/callab/tunkel/Negation2.0/Experiment2/contrastA/production-results/3JUDR1D0D6G4MF9B8WR1AFVRI74Q28-35GCEFQ6I6D5794FPUTL827E7UDZ3O.json,1,standard,FALSE
2915.73,fork,NA,169701,14,10,G,known,23,/Users/dan/Projects/callab/tunkel/Negation2.0/Experiment2/contrastA/production-results/3JUDR1D0D6G4MF9B8WR1AFVRI74Q28-35GCEFQ6I6D5794FPUTL827E7UDZ3O.json,1,standard,FALSE
8176.055,art,NA,180983,15,N,9,unknown,23,/Users/dan/Projects/callab/tunkel/Negation2.0/Experiment2/contrastA/production-results/3JUDR1D0D6G4MF9B8WR1AFVRI74Q28-35GCEFQ6I6D5794FPUTL827E7UDZ3O.json,1,standard,FALSE
2894.635,art,NA,184734,16,E,9,unknown,23,/Users/dan/Projects/callab/tunkel/Negation2.0/Experiment2/contrastA/production-results/3JUDR1D0D6G4MF9B8WR1AFVRI74Q28-35GCEFQ6I6D5794FPUTL827E7UDZ3O.json,2,standard,FALSE
4465.64,art,NA,190554,17,M,9,unknown,23,/Users/dan/Projects/callab/tunkel/Negation2.0/Experiment2/contrastA/production-results/3JUDR1D0D6G4MF9B8WR1AFVRI74Q28-35GCEFQ6I6D5794FPUTL827E7UDZ3O.json,3,standard,FALSE
1989.205,cat,NA,193899,18,9,B,known,23,/Users/dan/Projects/callab/tunkel/Negation2.0/Experiment2/contrastA/production-results/3JUDR1D0D6G4MF9B8WR1AFVRI74Q28-35GCEFQ6I6D5794FPUTL827E7UDZ3O.json,1,switch,FALSE
429213.94,impatiens,NA,2270875,3,L,11,unknown,24,/Users/dan/Projects/callab/tunkel/Negation2.0/Experiment2/contrastB/production-results/3NFWQRSHVE3XAKR9TV1W0KLELO1FGN-3W92K5RLWV6RC4M92GSB2TS2XFZ5VL.json,1,standard,FALSE
6777.09,dice,NA,2278762,4,15,H,known,24,/Users/dan/Projects/callab/tunkel/Negation2.0/Experiment2/contrastB/production-results/3NFWQRSHVE3XAKR9TV1W0KLELO1FGN-3W92K5RLWV6RC4M92GSB2TS2XFZ5VL.json,1,standard,FALSE
10457.495,cone,NA,2291826,5,A,12,unknown,24,/Users/dan/Projects/callab/tunkel/Negation2.0/Experiment2/contrastB/production-results/3NFWQRSHVE3XAKR9TV1W0KLELO1FGN-3W92K5RLWV6RC4M92GSB2TS2XFZ5VL.json,1,standard,FALSE
7165.075,tree,NA,2301098,6,2,J,known,24,/Users/dan/Projects/callab/tunkel/Negation2.0/Experiment2/contrastB/production-results/3NFWQRSHVE3XAKR9TV1W0KLELO1FGN-3W92K5RLWV6RC4M92GSB2TS2XFZ5VL.json,1,standard,FALSE
290821.635,transport,NA,2594442,7,M,5,unknown,24,/Users/dan/Projects/callab/tunkel/Negation2.0/Experiment2/contrastB/production-results/3NFWQRSHVE3XAKR9TV1W0KLELO1FGN-3W92K5RLWV6RC4M92GSB2TS2XFZ5VL.json,1,standard,FALSE
16303.9,mould,NA,2612353,8,K,5,unknown,24,/Users/dan/Projects/callab/tunkel/Negation2.0/Experiment2/contrastB/production-results/3NFWQRSHVE3XAKR9TV1W0KLELO1FGN-3W92K5RLWV6RC4M92GSB2TS2XFZ5VL.json,2,standard,FALSE
7510.03,mould,NA,2621969,9,G,5,unknown,24,/Users/dan/Projects/callab/tunkel/Negation2.0/Experiment2/contrastB/production-results/3NFWQRSHVE3XAKR9TV1W0KLELO1FGN-3W92K5RLWV6RC4M92GSB2TS2XFZ5VL.json,3,standard,FALSE
7179.04,insect,NA,2630754,10,5,N,known,24,/Users/dan/Projects/callab/tunkel/Negation2.0/Experiment2/contrastB/production-results/3NFWQRSHVE3XAKR9TV1W0KLELO1FGN-3W92K5RLWV6RC4M92GSB2TS2XFZ5VL.json,1,switch,FALSE
4245.95,shoe,NA,2637106,11,8,C,known,24,/Users/dan/Projects/callab/tunkel/Negation2.0/Experiment2/contrastB/production-results/3NFWQRSHVE3XAKR9TV1W0KLELO1FGN-3W92K5RLWV6RC4M92GSB2TS2XFZ5VL.json,1,standard,FALSE
33529.975,sculpture,NA,2671994,12,D,7,unknown,24,/Users/dan/Projects/callab/tunkel/Negation2.0/Experiment2/contrastB/production-results/3NFWQRSHVE3XAKR9TV1W0KLELO1FGN-3W92K5RLWV6RC4M92GSB2TS2XFZ5VL.json,1,standard,FALSE
121718.455,plastic,NA,2795818,13,I,9,unknown,24,/Users/dan/Projects/callab/tunkel/Negation2.0/Experiment2/contrastB/production-results/3NFWQRSHVE3XAKR9TV1W0KLELO1FGN-3W92K5RLWV6RC4M92GSB2TS2XFZ5VL.json,1,standard,FALSE
5025.675,chair,NA,2801698,14,1,E,known,24,/Users/dan/Projects/callab/tunkel/Negation2.0/Experiment2/contrastB/production-results/3NFWQRSHVE3XAKR9TV1W0KLELO1FGN-3W92K5RLWV6RC4M92GSB2TS2XFZ5VL.json,1,standard,FALSE
7572.09,cat,NA,2810626,15,16,B,known,24,/Users/dan/Projects/callab/tunkel/Negation2.0/Experiment2/contrastB/production-results/3NFWQRSHVE3XAKR9TV1W0KLELO1FGN-3W92K5RLWV6RC4M92GSB2TS2XFZ5VL.json,1,standard,FALSE
4718.315,cat,NA,2816201,16,10,B,known,24,/Users/dan/Projects/callab/tunkel/Negation2.0/Experiment2/contrastB/production-results/3NFWQRSHVE3XAKR9TV1W0KLELO1FGN-3W92K5RLWV6RC4M92GSB2TS2XFZ5VL.json,2,standard,FALSE
33024.185,cat,NA,2850641,17,6,B,known,24,/Users/dan/Projects/callab/tunkel/Negation2.0/Experiment2/contrastB/production-results/3NFWQRSHVE3XAKR9TV1W0KLELO1FGN-3W92K5RLWV6RC4M92GSB2TS2XFZ5VL.json,3,standard,FALSE
40818.285,cape,NA,2895433,18,B,3,unknown,24,/Users/dan/Projects/callab/tunkel/Negation2.0/Experiment2/contrastB/production-results/3NFWQRSHVE3XAKR9TV1W0KLELO1FGN-3W92K5RLWV6RC4M92GSB2TS2XFZ5VL.json,1,switch,FALSE
11369.49,rubber bulb,NA,88511,3,C,10,unknown,25,/Users/dan/Projects/callab/tunkel/Negation2.0/Experiment2/contrastB/production-results/3ZLW647WALKCFE39ALF5X72G8FR32J-3M1CVSFP61UWD229BDPI4H9G81KQAH.json,1,standard,FALSE
13231.7,jewelry ring,NA,104349,4,12,F,known,25,/Users/dan/Projects/callab/tunkel/Negation2.0/Experiment2/contrastB/production-results/3ZLW647WALKCFE39ALF5X72G8FR32J-3M1CVSFP61UWD229BDPI4H9G81KQAH.json,1,standard,FALSE
6240.19,not a pen,NA,111444,5,D,3,unknown,25,/Users/dan/Projects/callab/tunkel/Negation2.0/Experiment2/contrastB/production-results/3ZLW647WALKCFE39ALF5X72G8FR32J-3M1CVSFP61UWD229BDPI4H9G81KQAH.json,1,standard,TRUE
3625.625,chair,NA,115926,6,6,E,known,25,/Users/dan/Projects/callab/tunkel/Negation2.0/Experiment2/contrastB/production-results/3ZLW647WALKCFE39ALF5X72G8FR32J-3M1CVSFP61UWD229BDPI4H9G81KQAH.json,1,standard,FALSE
7173.34,not the cat,NA,126204,7,B,16,unknown,25,/Users/dan/Projects/callab/tunkel/Negation2.0/Experiment2/contrastB/production-results/3ZLW647WALKCFE39ALF5X72G8FR32J-3M1CVSFP61UWD229BDPI4H9G81KQAH.json,1,standard,TRUE
5962.845,not the die,NA,133771,8,H,16,unknown,25,/Users/dan/Projects/callab/tunkel/Negation2.0/Experiment2/contrastB/production-results/3ZLW647WALKCFE39ALF5X72G8FR32J-3M1CVSFP61UWD229BDPI4H9G81KQAH.json,2,standard,TRUE
4926.145,not the tree,NA,141804,9,J,16,unknown,25,/Users/dan/Projects/callab/tunkel/Negation2.0/Experiment2/contrastB/production-results/3ZLW647WALKCFE39ALF5X72G8FR32J-3M1CVSFP61UWD229BDPI4H9G81KQAH.json,3,standard,TRUE
3410.055,flower,NA,147321,10,16,L,known,25,/Users/dan/Projects/callab/tunkel/Negation2.0/Experiment2/contrastB/production-results/3ZLW647WALKCFE39ALF5X72G8FR32J-3M1CVSFP61UWD229BDPI4H9G81KQAH.json,1,switch,FALSE
3671.95,crab,NA,152100,11,4,N,known,25,/Users/dan/Projects/callab/tunkel/Negation2.0/Experiment2/contrastB/production-results/3ZLW647WALKCFE39ALF5X72G8FR32J-3M1CVSFP61UWD229BDPI4H9G81KQAH.json,1,standard,FALSE
4566.94,not the car,NA,158523,12,I,2,unknown,25,/Users/dan/Projects/callab/tunkel/Negation2.0/Experiment2/contrastB/production-results/3ZLW647WALKCFE39ALF5X72G8FR32J-3M1CVSFP61UWD229BDPI4H9G81KQAH.json,1,standard,TRUE
4236.9,blocks,NA,163615,13,A,15,unknown,25,/Users/dan/Projects/callab/tunkel/Negation2.0/Experiment2/contrastB/production-results/3ZLW647WALKCFE39ALF5X72G8FR32J-3M1CVSFP61UWD229BDPI4H9G81KQAH.json,1,standard,FALSE
2767.905,fork,NA,168237,14,8,G,known,25,/Users/dan/Projects/callab/tunkel/Negation2.0/Experiment2/contrastB/production-results/3ZLW647WALKCFE39ALF5X72G8FR32J-3M1CVSFP61UWD229BDPI4H9G81KQAH.json,1,standard,FALSE
3729.015,butterfly,NA,173073,15,11,K,known,25,/Users/dan/Projects/callab/tunkel/Negation2.0/Experiment2/contrastB/production-results/3ZLW647WALKCFE39ALF5X72G8FR32J-3M1CVSFP61UWD229BDPI4H9G81KQAH.json,1,standard,FALSE
3887.4,butterfly,NA,179065,16,7,K,known,25,/Users/dan/Projects/callab/tunkel/Negation2.0/Experiment2/contrastB/production-results/3ZLW647WALKCFE39ALF5X72G8FR32J-3M1CVSFP61UWD229BDPI4H9G81KQAH.json,2,standard,FALSE
11697.205,butterfly,NA,192618,17,9,K,known,25,/Users/dan/Projects/callab/tunkel/Negation2.0/Experiment2/contrastB/production-results/3ZLW647WALKCFE39ALF5X72G8FR32J-3M1CVSFP61UWD229BDPI4H9G81KQAH.json,3,standard,FALSE
9622.91,not the butterfly,NA,204097,18,K,5,unknown,25,/Users/dan/Projects/callab/tunkel/Negation2.0/Experiment2/contrastB/production-results/3ZLW647WALKCFE39ALF5X72G8FR32J-3M1CVSFP61UWD229BDPI4H9G81KQAH.json,1,switch,TRUE
8191.65,art,NA,165150,3,N,5,unknown,26,/Users/dan/Projects/callab/tunkel/Negation2.0/Experiment2/contrastB/production-results/3ZLW647WALKCFE39ALF5X72G8FR32J-3AZHRG4CU5985OYPL0GT234SPNV301.json,1,standard,FALSE
8446.34,fruit,NA,175456,4,4,A,known,26,/Users/dan/Projects/callab/tunkel/Negation2.0/Experiment2/contrastB/production-results/3ZLW647WALKCFE39ALF5X72G8FR32J-3AZHRG4CU5985OYPL0GT234SPNV301.json,1,standard,FALSE
8460.34,art,NA,185775,5,J,2,unknown,26,/Users/dan/Projects/callab/tunkel/Negation2.0/Experiment2/contrastB/production-results/3ZLW647WALKCFE39ALF5X72G8FR32J-3AZHRG4CU5985OYPL0GT234SPNV301.json,1,standard,FALSE
8969.91,jewelry,NA,196605,6,1,F,known,26,/Users/dan/Projects/callab/tunkel/Negation2.0/Experiment2/contrastB/production-results/3ZLW647WALKCFE39ALF5X72G8FR32J-3AZHRG4CU5985OYPL0GT234SPNV301.json,1,standard,FALSE
12986.925,toy,NA,211698,7,L,16,unknown,26,/Users/dan/Projects/callab/tunkel/Negation2.0/Experiment2/contrastB/production-results/3ZLW647WALKCFE39ALF5X72G8FR32J-3AZHRG4CU5985OYPL0GT234SPNV301.json,1,standard,FALSE
13893.625,toy,NA,226948,8,D,16,unknown,26,/Users/dan/Projects/callab/tunkel/Negation2.0/Experiment2/contrastB/production-results/3ZLW647WALKCFE39ALF5X72G8FR32J-3AZHRG4CU5985OYPL0GT234SPNV301.json,2,standard,FALSE
15843.77,art,NA,245898,9,M,16,unknown,26,/Users/dan/Projects/callab/tunkel/Negation2.0/Experiment2/contrastB/production-results/3ZLW647WALKCFE39ALF5X72G8FR32J-3AZHRG4CU5985OYPL0GT234SPNV301.json,3,standard,FALSE
12778.26,furniture,NA,259534,10,16,E,known,26,/Users/dan/Projects/callab/tunkel/Negation2.0/Experiment2/contrastB/production-results/3ZLW647WALKCFE39ALF5X72G8FR32J-3AZHRG4CU5985OYPL0GT234SPNV301.json,1,switch,FALSE
9265.125,animal,NA,270906,11,8,B,known,26,/Users/dan/Projects/callab/tunkel/Negation2.0/Experiment2/contrastB/production-results/3ZLW647WALKCFE39ALF5X72G8FR32J-3AZHRG4CU5985OYPL0GT234SPNV301.json,1,standard,FALSE
13827.415,art,NA,286842,12,H,15,unknown,26,/Users/dan/Projects/callab/tunkel/Negation2.0/Experiment2/contrastB/production-results/3ZLW647WALKCFE39ALF5X72G8FR32J-3AZHRG4CU5985OYPL0GT234SPNV301.json,1,standard,FALSE
6517.305,art,NA,294718,13,C,7,unknown,26,/Users/dan/Projects/callab/tunkel/Negation2.0/Experiment2/contrastB/production-results/3ZLW647WALKCFE39ALF5X72G8FR32J-3AZHRG4CU5985OYPL0GT234SPNV301.json,1,standard,FALSE
7313.905,insect,NA,303890,14,12,K,known,26,/Users/dan/Projects/callab/tunkel/Negation2.0/Experiment2/contrastB/production-results/3ZLW647WALKCFE39ALF5X72G8FR32J-3AZHRG4CU5985OYPL0GT234SPNV301.json,1,standard,FALSE
8485.765,automobile,NA,313484,15,10,I,known,26,/Users/dan/Projects/callab/tunkel/Negation2.0/Experiment2/contrastB/production-results/3ZLW647WALKCFE39ALF5X72G8FR32J-3AZHRG4CU5985OYPL0GT234SPNV301.json,1,standard,FALSE
13770.77,transportation,NA,329112,16,11,I,known,26,/Users/dan/Projects/callab/tunkel/Negation2.0/Experiment2/contrastB/production-results/3ZLW647WALKCFE39ALF5X72G8FR32J-3AZHRG4CU5985OYPL0GT234SPNV301.json,2,standard,FALSE
4955.13,car,NA,335926,17,6,I,known,26,/Users/dan/Projects/callab/tunkel/Negation2.0/Experiment2/contrastB/production-results/3ZLW647WALKCFE39ALF5X72G8FR32J-3AZHRG4CU5985OYPL0GT234SPNV301.json,3,standard,FALSE
7593.57,art,NA,345377,18,I,9,unknown,26,/Users/dan/Projects/callab/tunkel/Negation2.0/Experiment2/contrastB/production-results/3ZLW647WALKCFE39ALF5X72G8FR32J-3AZHRG4CU5985OYPL0GT234SPNV301.json,1,switch,FALSE
2887.835,fruit,NA,78328,3,6,A,known,27,/Users/dan/Projects/callab/tunkel/Negation2.0/Experiment2/contrastA/production-results/338GLSUI43000P00OVVDPY4H9ZUSFJ-3Z9WI9EOZ0DPCMCS4EFDPHKBMQIKHU.json,1,standard,FALSE
7151.285,spiky item,NA,86590,4,E,1,unknown,27,/Users/dan/Projects/callab/tunkel/Negation2.0/Experiment2/contrastA/production-results/338GLSUI43000P00OVVDPY4H9ZUSFJ-3Z9WI9EOZ0DPCMCS4EFDPHKBMQIKHU.json,1,standard,FALSE
3080.105,vase,NA,90530,5,N,2,unknown,27,/Users/dan/Projects/callab/tunkel/Negation2.0/Experiment2/contrastA/production-results/338GLSUI43000P00OVVDPY4H9ZUSFJ-3Z9WI9EOZ0DPCMCS4EFDPHKBMQIKHU.json,1,standard,FALSE
508822.635,dice,NA,602463,6,10,H,known,27,/Users/dan/Projects/callab/tunkel/Negation2.0/Experiment2/contrastA/production-results/338GLSUI43000P00OVVDPY4H9ZUSFJ-3Z9WI9EOZ0DPCMCS4EFDPHKBMQIKHU.json,1,standard,FALSE
2263.085,tree,NA,606591,7,3,J,known,27,/Users/dan/Projects/callab/tunkel/Negation2.0/Experiment2/contrastA/production-results/338GLSUI43000P00OVVDPY4H9ZUSFJ-3Z9WI9EOZ0DPCMCS4EFDPHKBMQIKHU.json,1,standard,FALSE
2696.915,tree,NA,612397,8,8,J,known,27,/Users/dan/Projects/callab/tunkel/Negation2.0/Experiment2/contrastA/production-results/338GLSUI43000P00OVVDPY4H9ZUSFJ-3Z9WI9EOZ0DPCMCS4EFDPHKBMQIKHU.json,2,standard,FALSE
3180.69,tree,NA,617437,9,12,J,known,27,/Users/dan/Projects/callab/tunkel/Negation2.0/Experiment2/contrastA/production-results/338GLSUI43000P00OVVDPY4H9ZUSFJ-3Z9WI9EOZ0DPCMCS4EFDPHKBMQIKHU.json,3,standard,FALSE
5386.15,art,NA,624180,10,J,5,unknown,27,/Users/dan/Projects/callab/tunkel/Negation2.0/Experiment2/contrastA/production-results/338GLSUI43000P00OVVDPY4H9ZUSFJ-3Z9WI9EOZ0DPCMCS4EFDPHKBMQIKHU.json,1,switch,FALSE
4676.615,fluffly,NA,630474,11,C,4,unknown,27,/Users/dan/Projects/callab/tunkel/Negation2.0/Experiment2/contrastA/production-results/338GLSUI43000P00OVVDPY4H9ZUSFJ-3Z9WI9EOZ0DPCMCS4EFDPHKBMQIKHU.json,1,standard,FALSE
3958.345,utensil,NA,637544,12,11,G,known,27,/Users/dan/Projects/callab/tunkel/Negation2.0/Experiment2/contrastA/production-results/338GLSUI43000P00OVVDPY4H9ZUSFJ-3Z9WI9EOZ0DPCMCS4EFDPHKBMQIKHU.json,1,standard,FALSE
5085.66,art,NA,644245,13,D,7,unknown,27,/Users/dan/Projects/callab/tunkel/Negation2.0/Experiment2/contrastA/production-results/338GLSUI43000P00OVVDPY4H9ZUSFJ-3Z9WI9EOZ0DPCMCS4EFDPHKBMQIKHU.json,1,standard,FALSE
3932.035,insect,NA,649539,14,16,K,known,27,/Users/dan/Projects/callab/tunkel/Negation2.0/Experiment2/contrastA/production-results/338GLSUI43000P00OVVDPY4H9ZUSFJ-3Z9WI9EOZ0DPCMCS4EFDPHKBMQIKHU.json,1,standard,FALSE
4184.385,plastic,NA,656841,15,L,9,unknown,27,/Users/dan/Projects/callab/tunkel/Negation2.0/Experiment2/contrastA/production-results/338GLSUI43000P00OVVDPY4H9ZUSFJ-3Z9WI9EOZ0DPCMCS4EFDPHKBMQIKHU.json,1,standard,FALSE
4225.105,plastic,NA,663175,16,B,9,unknown,27,/Users/dan/Projects/callab/tunkel/Negation2.0/Experiment2/contrastA/production-results/338GLSUI43000P00OVVDPY4H9ZUSFJ-3Z9WI9EOZ0DPCMCS4EFDPHKBMQIKHU.json,2,standard,FALSE
2995.265,plastic,NA,667787,17,F,9,unknown,27,/Users/dan/Projects/callab/tunkel/Negation2.0/Experiment2/contrastA/production-results/338GLSUI43000P00OVVDPY4H9ZUSFJ-3Z9WI9EOZ0DPCMCS4EFDPHKBMQIKHU.json,3,standard,FALSE
2529.445,cup,NA,672182,18,9,M,known,27,/Users/dan/Projects/callab/tunkel/Negation2.0/Experiment2/contrastA/production-results/338GLSUI43000P00OVVDPY4H9ZUSFJ-3Z9WI9EOZ0DPCMCS4EFDPHKBMQIKHU.json,1,switch,FALSE
9135,Toy,NA,185660,3,A,1,unknown,28,/Users/dan/Projects/callab/tunkel/Negation2.0/Experiment2/contrastB/production-results/3NFWQRSHVE3XAKR9TV1W0KLELO1FGN-3J2UYBXQQM1727L742ER96GCZEX064.json,1,standard,FALSE
5872,Fork,NA,192389,4,2,G,known,28,/Users/dan/Projects/callab/tunkel/Negation2.0/Experiment2/contrastB/production-results/3NFWQRSHVE3XAKR9TV1W0KLELO1FGN-3J2UYBXQQM1727L742ER96GCZEX064.json,1,standard,FALSE
11756,Paper,NA,205007,5,E,8,unknown,28,/Users/dan/Projects/callab/tunkel/Negation2.0/Experiment2/contrastB/production-results/3NFWQRSHVE3XAKR9TV1W0KLELO1FGN-3J2UYBXQQM1727L742ER96GCZEX064.json,1,standard,FALSE
10399,Christmas tree,NA,216764,6,9,J,known,28,/Users/dan/Projects/callab/tunkel/Negation2.0/Experiment2/contrastB/production-results/3NFWQRSHVE3XAKR9TV1W0KLELO1FGN-3J2UYBXQQM1727L742ER96GCZEX064.json,1,standard,FALSE
14648,Bread,NA,233515,7,F,3,unknown,28,/Users/dan/Projects/callab/tunkel/Negation2.0/Experiment2/contrastB/production-results/3NFWQRSHVE3XAKR9TV1W0KLELO1FGN-3J2UYBXQQM1727L742ER96GCZEX064.json,1,standard,FALSE
5370,Bread,NA,240740,8,D,3,unknown,28,/Users/dan/Projects/callab/tunkel/Negation2.0/Experiment2/contrastB/production-results/3NFWQRSHVE3XAKR9TV1W0KLELO1FGN-3J2UYBXQQM1727L742ER96GCZEX064.json,2,standard,FALSE
6245,Bread,NA,249589,9,C,3,unknown,28,/Users/dan/Projects/callab/tunkel/Negation2.0/Experiment2/contrastB/production-results/3NFWQRSHVE3XAKR9TV1W0KLELO1FGN-3J2UYBXQQM1727L742ER96GCZEX064.json,3,standard,FALSE
6798,Butterfly,NA,258494,10,3,K,known,28,/Users/dan/Projects/callab/tunkel/Negation2.0/Experiment2/contrastB/production-results/3NFWQRSHVE3XAKR9TV1W0KLELO1FGN-3J2UYBXQQM1727L742ER96GCZEX064.json,1,switch,FALSE
8949,Dice,NA,269548,11,7,H,known,28,/Users/dan/Projects/callab/tunkel/Negation2.0/Experiment2/contrastB/production-results/3NFWQRSHVE3XAKR9TV1W0KLELO1FGN-3J2UYBXQQM1727L742ER96GCZEX064.json,1,standard,FALSE
8256,LolIPOP,NA,280412,12,N,10,unknown,28,/Users/dan/Projects/callab/tunkel/Negation2.0/Experiment2/contrastB/production-results/3NFWQRSHVE3XAKR9TV1W0KLELO1FGN-3J2UYBXQQM1727L742ER96GCZEX064.json,1,standard,FALSE
12560,Instrument,NA,294077,13,L,12,unknown,28,/Users/dan/Projects/callab/tunkel/Negation2.0/Experiment2/contrastB/production-results/3NFWQRSHVE3XAKR9TV1W0KLELO1FGN-3J2UYBXQQM1727L742ER96GCZEX064.json,1,standard,FALSE
5190,Cat,NA,300373,14,6,B,known,28,/Users/dan/Projects/callab/tunkel/Negation2.0/Experiment2/contrastB/production-results/3NFWQRSHVE3XAKR9TV1W0KLELO1FGN-3J2UYBXQQM1727L742ER96GCZEX064.json,1,standard,FALSE
3590,Cup,NA,305820,15,15,M,known,28,/Users/dan/Projects/callab/tunkel/Negation2.0/Experiment2/contrastB/production-results/3NFWQRSHVE3XAKR9TV1W0KLELO1FGN-3J2UYBXQQM1727L742ER96GCZEX064.json,1,standard,FALSE
3976,Cup,NA,311653,16,11,M,known,28,/Users/dan/Projects/callab/tunkel/Negation2.0/Experiment2/contrastB/production-results/3NFWQRSHVE3XAKR9TV1W0KLELO1FGN-3J2UYBXQQM1727L742ER96GCZEX064.json,2,standard,FALSE
5125,Cup,NA,318884,17,16,M,known,28,/Users/dan/Projects/callab/tunkel/Negation2.0/Experiment2/contrastB/production-results/3NFWQRSHVE3XAKR9TV1W0KLELO1FGN-3J2UYBXQQM1727L742ER96GCZEX064.json,3,standard,FALSE
9085,Aeroplane toy,NA,328824,18,M,5,unknown,28,/Users/dan/Projects/callab/tunkel/Negation2.0/Experiment2/contrastB/production-results/3NFWQRSHVE3XAKR9TV1W0KLELO1FGN-3J2UYBXQQM1727L742ER96GCZEX064.json,1,switch,FALSE
5445.845,weird toolo,NA,100893,3,I,10,unknown,29,/Users/dan/Projects/callab/tunkel/Negation2.0/Experiment2/contrastB/production-results/3NFWQRSHVE3XAKR9TV1W0KLELO1FGN-3M81GAB8A181WC71HRPEZSTMQJ5QBC.json,1,standard,FALSE
5584.745,dome ring,NA,108333,4,4,F,known,29,/Users/dan/Projects/callab/tunkel/Negation2.0/Experiment2/contrastB/production-results/3NFWQRSHVE3XAKR9TV1W0KLELO1FGN-3M81GAB8A181WC71HRPEZSTMQJ5QBC.json,1,standard,FALSE
7801.2,cymbal spaceship,NA,117989,5,J,12,unknown,29,/Users/dan/Projects/callab/tunkel/Negation2.0/Experiment2/contrastB/production-results/3NFWQRSHVE3XAKR9TV1W0KLELO1FGN-3M81GAB8A181WC71HRPEZSTMQJ5QBC.json,1,standard,FALSE
3065.92,crab,NA,121909,6,16,N,known,29,/Users/dan/Projects/callab/tunkel/Negation2.0/Experiment2/contrastB/production-results/3NFWQRSHVE3XAKR9TV1W0KLELO1FGN-3M81GAB8A181WC71HRPEZSTMQJ5QBC.json,1,standard,FALSE
11443.74,weird bublelike vase,NA,135958,7,M,2,unknown,29,/Users/dan/Projects/callab/tunkel/Negation2.0/Experiment2/contrastB/production-results/3NFWQRSHVE3XAKR9TV1W0KLELO1FGN-3M81GAB8A181WC71HRPEZSTMQJ5QBC.json,1,standard,FALSE
5206.095,weird bublelike vase,NA,142518,8,B,2,unknown,29,/Users/dan/Projects/callab/tunkel/Negation2.0/Experiment2/contrastB/production-results/3NFWQRSHVE3XAKR9TV1W0KLELO1FGN-3M81GAB8A181WC71HRPEZSTMQJ5QBC.json,2,standard,FALSE
9421.61,weird bubblelike vase,NA,153293,9,G,2,unknown,29,/Users/dan/Projects/callab/tunkel/Negation2.0/Experiment2/contrastB/production-results/3NFWQRSHVE3XAKR9TV1W0KLELO1FGN-3M81GAB8A181WC71HRPEZSTMQJ5QBC.json,3,standard,FALSE
2455.335,chair,NA,158853,10,2,E,known,29,/Users/dan/Projects/callab/tunkel/Negation2.0/Experiment2/contrastB/production-results/3NFWQRSHVE3XAKR9TV1W0KLELO1FGN-3M81GAB8A181WC71HRPEZSTMQJ5QBC.json,1,switch,FALSE
1746.895,pen,NA,162453,11,9,D,known,29,/Users/dan/Projects/callab/tunkel/Negation2.0/Experiment2/contrastB/production-results/3NFWQRSHVE3XAKR9TV1W0KLELO1FGN-3M81GAB8A181WC71HRPEZSTMQJ5QBC.json,1,standard,FALSE
18064.34,weird looking free weight,NA,181621,12,K,5,unknown,29,/Users/dan/Projects/callab/tunkel/Negation2.0/Experiment2/contrastB/production-results/3NFWQRSHVE3XAKR9TV1W0KLELO1FGN-3M81GAB8A181WC71HRPEZSTMQJ5QBC.json,1,standard,FALSE
6758.95,giant gallstone,NA,190485,13,A,11,unknown,29,/Users/dan/Projects/callab/tunkel/Negation2.0/Experiment2/contrastB/production-results/3NFWQRSHVE3XAKR9TV1W0KLELO1FGN-3M81GAB8A181WC71HRPEZSTMQJ5QBC.json,1,standard,FALSE
1848.695,shoe,NA,193437,14,6,C,known,29,/Users/dan/Projects/callab/tunkel/Negation2.0/Experiment2/contrastB/production-results/3NFWQRSHVE3XAKR9TV1W0KLELO1FGN-3M81GAB8A181WC71HRPEZSTMQJ5QBC.json,1,standard,FALSE
3145.155,flower,NA,198437,15,15,L,known,29,/Users/dan/Projects/callab/tunkel/Negation2.0/Experiment2/contrastB/production-results/3NFWQRSHVE3XAKR9TV1W0KLELO1FGN-3M81GAB8A181WC71HRPEZSTMQJ5QBC.json,1,standard,FALSE
2257.695,flower,NA,202548,16,7,L,known,29,/Users/dan/Projects/callab/tunkel/Negation2.0/Experiment2/contrastB/production-results/3NFWQRSHVE3XAKR9TV1W0KLELO1FGN-3M81GAB8A181WC71HRPEZSTMQJ5QBC.json,2,standard,FALSE
1746.94,slower,NA,205901,17,3,L,known,29,/Users/dan/Projects/callab/tunkel/Negation2.0/Experiment2/contrastB/production-results/3NFWQRSHVE3XAKR9TV1W0KLELO1FGN-3M81GAB8A181WC71HRPEZSTMQJ5QBC.json,3,standard,FALSE
3963.295,trash,NA,212468,18,L,8,unknown,29,/Users/dan/Projects/callab/tunkel/Negation2.0/Experiment2/contrastB/production-results/3NFWQRSHVE3XAKR9TV1W0KLELO1FGN-3M81GAB8A181WC71HRPEZSTMQJ5QBC.json,1,switch,FALSE
6683.755,art,NA,100478,3,E,4,unknown,30,/Users/dan/Projects/callab/tunkel/Negation2.0/Experiment2/contrastB/production-results/3ZLW647WALKCFE39ALF5X72G8FR32J-324G5B4FB4XQ67ZCNCJJFKG8UPH073.json,1,standard,FALSE
4565.38,flower,NA,106907,4,5,L,known,30,/Users/dan/Projects/callab/tunkel/Negation2.0/Experiment2/contrastB/production-results/3ZLW647WALKCFE39ALF5X72G8FR32J-324G5B4FB4XQ67ZCNCJJFKG8UPH073.json,1,standard,FALSE
9361.865,ball,NA,119385,5,N,8,unknown,30,/Users/dan/Projects/callab/tunkel/Negation2.0/Experiment2/contrastB/production-results/3ZLW647WALKCFE39ALF5X72G8FR32J-324G5B4FB4XQ67ZCNCJJFKG8UPH073.json,1,standard,FALSE
