rt,response,locator,time_elapsed,trial,distractor,target,type,id,file,occurrence,switch,negation
12507.069999817759,car,NA,432891,3,I,12,unknown,1,/Users/dan/Projects/callab/tunkel/Negation2.0/raw_data/Experiment3/positionA/production-results/336OE47KI29I333Z8FAI49AO3MPVWW-3SKRO2GZ72GE8BRE2PCSXU448WR1KA.json,1,standard,FALSE
8831.050000153482,tea cup,NA,444378,4,6,M,known,1,/Users/dan/Projects/callab/tunkel/Negation2.0/raw_data/Experiment3/positionA/production-results/336OE47KI29I333Z8FAI49AO3MPVWW-3SKRO2GZ72GE8BRE2PCSXU448WR1KA.json,1,standard,FALSE
6415.889999829233,cup,NA,452178,5,5,M,known,1,/Users/dan/Projects/callab/tunkel/Negation2.0/raw_data/Experiment3/positionA/production-results/336OE47KI29I333Z8FAI49AO3MPVWW-3SKRO2GZ72GE8BRE2PCSXU448WR1KA.json,2,standard,FALSE
10682.560000102967,cup,NA,464500,6,9,M,known,1,/Users/dan/Projects/callab/tunkel/Negation2.0/raw_data/Experiment3/positionA/production-results/336OE47KI29I333Z8FAI49AO3MPVWW-3SKRO2GZ72GE8BRE2PCSXU448WR1KA.json,3,standard,FALSE
13726.714999880642,slicewr,NA,479891,7,A,10,unknown,1,/Users/dan/Projects/callab/tunkel/Negation2.0/raw_data/Experiment3/positionA/production-results/336OE47KI29I333Z8FAI49AO3MPVWW-3SKRO2GZ72GE8BRE2PCSXU448WR1KA.json,1,switch,FALSE
11296.120000071824,bubules,NA,493813,8,1,G,known,1,/Users/dan/Projects/callab/tunkel/Negation2.0/raw_data/Experiment3/positionA/production-results/336OE47KI29I333Z8FAI49AO3MPVWW-3SKRO2GZ72GE8BRE2PCSXU448WR1KA.json,1,standard,FALSE
8357.10999974981,mirror,NA,503555,9,K,15,unknown,1,/Users/dan/Projects/callab/tunkel/Negation2.0/raw_data/Experiment3/positionA/production-results/336OE47KI29I333Z8FAI49AO3MPVWW-3SKRO2GZ72GE8BRE2PCSXU448WR1KA.json,1,standard,FALSE
15498.490000143647,wear,NA,522187,10,M,7,unknown,1,/Users/dan/Projects/callab/tunkel/Negation2.0/raw_data/Experiment3/positionA/production-results/336OE47KI29I333Z8FAI49AO3MPVWW-3SKRO2GZ72GE8BRE2PCSXU448WR1KA.json,1,standard,FALSE
4888.915000017732,bench,NA,528444,11,11,E,known,1,/Users/dan/Projects/callab/tunkel/Negation2.0/raw_data/Experiment3/positionA/production-results/336OE47KI29I333Z8FAI49AO3MPVWW-3SKRO2GZ72GE8BRE2PCSXU448WR1KA.json,1,standard,FALSE
13335.500000044703,plastic,NA,542914,12,B,8,unknown,1,/Users/dan/Projects/callab/tunkel/Negation2.0/raw_data/Experiment3/positionA/production-results/336OE47KI29I333Z8FAI49AO3MPVWW-3SKRO2GZ72GE8BRE2PCSXU448WR1KA.json,1,standard,FALSE
7427.10499977693,plastic,NA,553474,13,C,8,unknown,1,/Users/dan/Projects/callab/tunkel/Negation2.0/raw_data/Experiment3/positionA/production-results/336OE47KI29I333Z8FAI49AO3MPVWW-3SKRO2GZ72GE8BRE2PCSXU448WR1KA.json,2,standard,FALSE
8698.074999731034,dice,NA,563060,14,H,8,unknown,1,/Users/dan/Projects/callab/tunkel/Negation2.0/raw_data/Experiment3/positionA/production-results/336OE47KI29I333Z8FAI49AO3MPVWW-3SKRO2GZ72GE8BRE2PCSXU448WR1KA.json,3,standard,FALSE
4123.230000026524,pen,NA,568043,15,3,D,known,1,/Users/dan/Projects/callab/tunkel/Negation2.0/raw_data/Experiment3/positionA/production-results/336OE47KI29I333Z8FAI49AO3MPVWW-3SKRO2GZ72GE8BRE2PCSXU448WR1KA.json,1,switch,FALSE
12604.46499986574,watercane,NA,582523,16,F,2,unknown,1,/Users/dan/Projects/callab/tunkel/Negation2.0/raw_data/Experiment3/positionA/production-results/336OE47KI29I333Z8FAI49AO3MPVWW-3SKRO2GZ72GE8BRE2PCSXU448WR1KA.json,1,standard,FALSE
4352.565000299364,tree,NA,588515,17,4,J,known,1,/Users/dan/Projects/callab/tunkel/Negation2.0/raw_data/Experiment3/positionA/production-results/336OE47KI29I333Z8FAI49AO3MPVWW-3SKRO2GZ72GE8BRE2PCSXU448WR1KA.json,1,standard,FALSE
7300.615000072867,sunflower,NA,597683,18,8,L,known,1,/Users/dan/Projects/callab/tunkel/Negation2.0/raw_data/Experiment3/positionA/production-results/336OE47KI29I333Z8FAI49AO3MPVWW-3SKRO2GZ72GE8BRE2PCSXU448WR1KA.json,1,standard,FALSE
4186.4150000037625,sunflower,NA,93974,3,10,L,known,2,/Users/dan/Projects/callab/tunkel/Negation2.0/raw_data/Experiment3/positionB/production-results/3OID399FXGWUY0HIR50OUZIH8CWDFI-3XXU1SWE8NK8P9XAUFV3PBIYYSR0AR.json,1,standard,FALSE
10018.564999976661,looks like a blunt jack,NA,105350,4,A,11,unknown,2,/Users/dan/Projects/callab/tunkel/Negation2.0/raw_data/Experiment3/positionB/production-results/3OID399FXGWUY0HIR50OUZIH8CWDFI-3XXU1SWE8NK8P9XAUFV3PBIYYSR0AR.json,1,standard,FALSE
4272.025000012945,jack,NA,110978,5,G,11,unknown,2,/Users/dan/Projects/callab/tunkel/Negation2.0/raw_data/Experiment3/positionB/production-results/3OID399FXGWUY0HIR50OUZIH8CWDFI-3XXU1SWE8NK8P9XAUFV3PBIYYSR0AR.json,2,standard,FALSE
27003.660000045784,starburst shaped jack thing,NA,140088,6,F,11,unknown,2,/Users/dan/Projects/callab/tunkel/Negation2.0/raw_data/Experiment3/positionB/production-results/3OID399FXGWUY0HIR50OUZIH8CWDFI-3XXU1SWE8NK8P9XAUFV3PBIYYSR0AR.json,3,standard,FALSE
3721.9150000019,shoe,NA,145414,7,16,C,known,2,/Users/dan/Projects/callab/tunkel/Negation2.0/raw_data/Experiment3/positionB/production-results/3OID399FXGWUY0HIR50OUZIH8CWDFI-3XXU1SWE8NK8P9XAUFV3PBIYYSR0AR.json,1,switch,FALSE
23511.11999998102,looks like part of a sprayer,NA,171532,8,D,6,unknown,2,/Users/dan/Projects/callab/tunkel/Negation2.0/raw_data/Experiment3/positionB/production-results/3OID399FXGWUY0HIR50OUZIH8CWDFI-3XXU1SWE8NK8P9XAUFV3PBIYYSR0AR.json,1,standard,FALSE
5967.009999963921,butterfly,NA,179355,9,12,K,known,2,/Users/dan/Projects/callab/tunkel/Negation2.0/raw_data/Experiment3/positionB/production-results/3OID399FXGWUY0HIR50OUZIH8CWDFI-3XXU1SWE8NK8P9XAUFV3PBIYYSR0AR.json,1,standard,FALSE
3339.894999982789,chair,NA,184551,10,11,E,known,2,/Users/dan/Projects/callab/tunkel/Negation2.0/raw_data/Experiment3/positionB/production-results/3OID399FXGWUY0HIR50OUZIH8CWDFI-3XXU1SWE8NK8P9XAUFV3PBIYYSR0AR.json,1,standard,FALSE
5641.509999986738,dog toy,NA,191297,11,M,1,unknown,2,/Users/dan/Projects/callab/tunkel/Negation2.0/raw_data/Experiment3/positionB/production-results/3OID399FXGWUY0HIR50OUZIH8CWDFI-3XXU1SWE8NK8P9XAUFV3PBIYYSR0AR.json,1,standard,FALSE
3461.4399999845773,crab,NA,197363,12,9,N,known,2,/Users/dan/Projects/callab/tunkel/Negation2.0/raw_data/Experiment3/positionB/production-results/3OID399FXGWUY0HIR50OUZIH8CWDFI-3XXU1SWE8NK8P9XAUFV3PBIYYSR0AR.json,1,standard,FALSE
4409.820000000764,crab,NA,202629,13,7,N,known,2,/Users/dan/Projects/callab/tunkel/Negation2.0/raw_data/Experiment3/positionB/production-results/3OID399FXGWUY0HIR50OUZIH8CWDFI-3XXU1SWE8NK8P9XAUFV3PBIYYSR0AR.json,2,standard,FALSE
3097.959999984596,crab,NA,207583,14,3,N,known,2,/Users/dan/Projects/callab/tunkel/Negation2.0/raw_data/Experiment3/positionB/production-results/3OID399FXGWUY0HIR50OUZIH8CWDFI-3XXU1SWE8NK8P9XAUFV3PBIYYSR0AR.json,3,standard,FALSE
11813.47499997355,barbell shaped object,NA,220253,15,J,5,unknown,2,/Users/dan/Projects/callab/tunkel/Negation2.0/raw_data/Experiment3/positionB/production-results/3OID399FXGWUY0HIR50OUZIH8CWDFI-3XXU1SWE8NK8P9XAUFV3PBIYYSR0AR.json,1,switch,FALSE
3319.3000000319444,cat,NA,224929,16,4,B,known,2,/Users/dan/Projects/callab/tunkel/Negation2.0/raw_data/Experiment3/positionB/production-results/3OID399FXGWUY0HIR50OUZIH8CWDFI-3XXU1SWE8NK8P9XAUFV3PBIYYSR0AR.json,1,standard,FALSE
11569.019999995362,s shaped blocks,NA,238355,17,I,15,unknown,2,/Users/dan/Projects/callab/tunkel/Negation2.0/raw_data/Experiment3/positionB/production-results/3OID399FXGWUY0HIR50OUZIH8CWDFI-3XXU1SWE8NK8P9XAUFV3PBIYYSR0AR.json,1,standard,FALSE
8851.67000000365,flower shaped plastic,NA,248312,18,N,8,unknown,2,/Users/dan/Projects/callab/tunkel/Negation2.0/raw_data/Experiment3/positionB/production-results/3OID399FXGWUY0HIR50OUZIH8CWDFI-3XXU1SWE8NK8P9XAUFV3PBIYYSR0AR.json,1,standard,FALSE
2254,pen,NA,390395,3,5,D,known,3,/Users/dan/Projects/callab/tunkel/Negation2.0/raw_data/Experiment3/positionB/production-results/3WGZLY9VCHBLJL7VJRUIK71VL8J8DW-3KB8R4ZV1FWAJNDNEVK25EPKNR0GB4.json,1,standard,FALSE
39415,lego,NA,432919,4,F,15,unknown,3,/Users/dan/Projects/callab/tunkel/Negation2.0/raw_data/Experiment3/positionB/production-results/3WGZLY9VCHBLJL7VJRUIK71VL8J8DW-3KB8R4ZV1FWAJNDNEVK25EPKNR0GB4.json,1,standard,FALSE
2196,lego,NA,435982,5,I,15,unknown,3,/Users/dan/Projects/callab/tunkel/Negation2.0/raw_data/Experiment3/positionB/production-results/3WGZLY9VCHBLJL7VJRUIK71VL8J8DW-3KB8R4ZV1FWAJNDNEVK25EPKNR0GB4.json,2,standard,FALSE
1488,lego,NA,438832,6,E,15,unknown,3,/Users/dan/Projects/callab/tunkel/Negation2.0/raw_data/Experiment3/positionB/production-results/3WGZLY9VCHBLJL7VJRUIK71VL8J8DW-3KB8R4ZV1FWAJNDNEVK25EPKNR0GB4.json,3,standard,FALSE
1797,flower,NA,441736,7,10,L,known,3,/Users/dan/Projects/callab/tunkel/Negation2.0/raw_data/Experiment3/positionB/production-results/3WGZLY9VCHBLJL7VJRUIK71VL8J8DW-3KB8R4ZV1FWAJNDNEVK25EPKNR0GB4.json,1,switch,FALSE
3752,white,NA,447348,8,C,3,unknown,3,/Users/dan/Projects/callab/tunkel/Negation2.0/raw_data/Experiment3/positionB/production-results/3WGZLY9VCHBLJL7VJRUIK71VL8J8DW-3KB8R4ZV1FWAJNDNEVK25EPKNR0GB4.json,1,standard,FALSE
2281,cip,NA,451238,9,4,M,known,3,/Users/dan/Projects/callab/tunkel/Negation2.0/raw_data/Experiment3/positionB/production-results/3WGZLY9VCHBLJL7VJRUIK71VL8J8DW-3KB8R4ZV1FWAJNDNEVK25EPKNR0GB4.json,1,standard,FALSE
1657,die,NA,454011,10,15,H,known,3,/Users/dan/Projects/callab/tunkel/Negation2.0/raw_data/Experiment3/positionB/production-results/3WGZLY9VCHBLJL7VJRUIK71VL8J8DW-3KB8R4ZV1FWAJNDNEVK25EPKNR0GB4.json,1,standard,FALSE
3874,blim,NA,460996,11,A,16,unknown,3,/Users/dan/Projects/callab/tunkel/Negation2.0/raw_data/Experiment3/positionB/production-results/3WGZLY9VCHBLJL7VJRUIK71VL8J8DW-3KB8R4ZV1FWAJNDNEVK25EPKNR0GB4.json,1,standard,FALSE
1834,fork,NA,464440,12,6,G,known,3,/Users/dan/Projects/callab/tunkel/Negation2.0/raw_data/Experiment3/positionB/production-results/3WGZLY9VCHBLJL7VJRUIK71VL8J8DW-3KB8R4ZV1FWAJNDNEVK25EPKNR0GB4.json,1,standard,FALSE
1341,fork,NA,467646,13,12,G,known,3,/Users/dan/Projects/callab/tunkel/Negation2.0/raw_data/Experiment3/positionB/production-results/3WGZLY9VCHBLJL7VJRUIK71VL8J8DW-3KB8R4ZV1FWAJNDNEVK25EPKNR0GB4.json,2,standard,FALSE
1604,fork,NA,471360,14,11,G,known,3,/Users/dan/Projects/callab/tunkel/Negation2.0/raw_data/Experiment3/positionB/production-results/3WGZLY9VCHBLJL7VJRUIK71VL8J8DW-3KB8R4ZV1FWAJNDNEVK25EPKNR0GB4.json,3,standard,FALSE
2356,ball,NA,476828,15,B,1,unknown,3,/Users/dan/Projects/callab/tunkel/Negation2.0/raw_data/Experiment3/positionB/production-results/3WGZLY9VCHBLJL7VJRUIK71VL8J8DW-3KB8R4ZV1FWAJNDNEVK25EPKNR0GB4.json,1,switch,FALSE
2349,crab,NA,481790,16,2,N,known,3,/Users/dan/Projects/callab/tunkel/Negation2.0/raw_data/Experiment3/positionB/production-results/3WGZLY9VCHBLJL7VJRUIK71VL8J8DW-3KB8R4ZV1FWAJNDNEVK25EPKNR0GB4.json,1,standard,FALSE
3182,thing,NA,486588,17,K,7,unknown,3,/Users/dan/Projects/callab/tunkel/Negation2.0/raw_data/Experiment3/positionB/production-results/3WGZLY9VCHBLJL7VJRUIK71VL8J8DW-3KB8R4ZV1FWAJNDNEVK25EPKNR0GB4.json,1,standard,FALSE
3210,thing,NA,490662,18,G,8,unknown,3,/Users/dan/Projects/callab/tunkel/Negation2.0/raw_data/Experiment3/positionB/production-results/3WGZLY9VCHBLJL7VJRUIK71VL8J8DW-3KB8R4ZV1FWAJNDNEVK25EPKNR0GB4.json,1,standard,FALSE
15567,junk,NA,84746,3,M,8,unknown,4,/Users/dan/Projects/callab/tunkel/Negation2.0/raw_data/Experiment3/positionA/production-results/37J05LC5AX8A323EAVR99XA91JDDJL-3N1FSUEFL6PNM4INXQ97RFGH0744DD.json,1,standard,FALSE
3022,tree,NA,89623,4,9,J,known,4,/Users/dan/Projects/callab/tunkel/Negation2.0/raw_data/Experiment3/positionA/production-results/37J05LC5AX8A323EAVR99XA91JDDJL-3N1FSUEFL6PNM4INXQ97RFGH0744DD.json,1,standard,FALSE
6178,tree,NA,96656,5,10,J,known,4,/Users/dan/Projects/callab/tunkel/Negation2.0/raw_data/Experiment3/positionA/production-results/37J05LC5AX8A323EAVR99XA91JDDJL-3N1FSUEFL6PNM4INXQ97RFGH0744DD.json,2,standard,FALSE
2369,tree,NA,100879,6,1,J,known,4,/Users/dan/Projects/callab/tunkel/Negation2.0/raw_data/Experiment3/positionA/production-results/37J05LC5AX8A323EAVR99XA91JDDJL-3N1FSUEFL6PNM4INXQ97RFGH0744DD.json,3,standard,FALSE
9897,blocks,NA,112632,7,L,15,unknown,4,/Users/dan/Projects/callab/tunkel/Negation2.0/raw_data/Experiment3/positionA/production-results/37J05LC5AX8A323EAVR99XA91JDDJL-3N1FSUEFL6PNM4INXQ97RFGH0744DD.json,1,switch,FALSE
7102,moth,NA,122838,8,4,K,known,4,/Users/dan/Projects/callab/tunkel/Negation2.0/raw_data/Experiment3/positionA/production-results/37J05LC5AX8A323EAVR99XA91JDDJL-3N1FSUEFL6PNM4INXQ97RFGH0744DD.json,1,standard,FALSE
12558,shape,NA,136750,9,F,5,unknown,4,/Users/dan/Projects/callab/tunkel/Negation2.0/raw_data/Experiment3/positionA/production-results/37J05LC5AX8A323EAVR99XA91JDDJL-3N1FSUEFL6PNM4INXQ97RFGH0744DD.json,1,standard,FALSE
8833,plastic,NA,148187,10,J,6,unknown,4,/Users/dan/Projects/callab/tunkel/Negation2.0/raw_data/Experiment3/positionA/production-results/37J05LC5AX8A323EAVR99XA91JDDJL-3N1FSUEFL6PNM4INXQ97RFGH0744DD.json,1,standard,FALSE
4489,pen,NA,154032,11,16,D,known,4,/Users/dan/Projects/callab/tunkel/Negation2.0/raw_data/Experiment3/positionA/production-results/37J05LC5AX8A323EAVR99XA91JDDJL-3N1FSUEFL6PNM4INXQ97RFGH0744DD.json,1,standard,FALSE
5918,art,NA,161053,12,I,3,unknown,4,/Users/dan/Projects/callab/tunkel/Negation2.0/raw_data/Experiment3/positionA/production-results/37J05LC5AX8A323EAVR99XA91JDDJL-3N1FSUEFL6PNM4INXQ97RFGH0744DD.json,1,standard,FALSE
3121,art,NA,165027,13,B,3,unknown,4,/Users/dan/Projects/callab/tunkel/Negation2.0/raw_data/Experiment3/positionA/production-results/37J05LC5AX8A323EAVR99XA91JDDJL-3N1FSUEFL6PNM4INXQ97RFGH0744DD.json,2,standard,FALSE
2122,art,NA,169003,14,C,3,unknown,4,/Users/dan/Projects/callab/tunkel/Negation2.0/raw_data/Experiment3/positionA/production-results/37J05LC5AX8A323EAVR99XA91JDDJL-3N1FSUEFL6PNM4INXQ97RFGH0744DD.json,3,standard,FALSE
4092,dice,NA,174449,15,7,H,known,4,/Users/dan/Projects/callab/tunkel/Negation2.0/raw_data/Experiment3/positionA/production-results/37J05LC5AX8A323EAVR99XA91JDDJL-3N1FSUEFL6PNM4INXQ97RFGH0744DD.json,1,switch,FALSE
5012,glass,NA,180316,16,E,2,unknown,4,/Users/dan/Projects/callab/tunkel/Negation2.0/raw_data/Experiment3/positionA/production-results/37J05LC5AX8A323EAVR99XA91JDDJL-3N1FSUEFL6PNM4INXQ97RFGH0744DD.json,1,standard,FALSE
3770,crab,NA,184941,17,11,N,known,4,/Users/dan/Projects/callab/tunkel/Negation2.0/raw_data/Experiment3/positionA/production-results/37J05LC5AX8A323EAVR99XA91JDDJL-3N1FSUEFL6PNM4INXQ97RFGH0744DD.json,1,standard,FALSE
4198,apple,NA,191241,18,3,A,known,4,/Users/dan/Projects/callab/tunkel/Negation2.0/raw_data/Experiment3/positionA/production-results/37J05LC5AX8A323EAVR99XA91JDDJL-3N1FSUEFL6PNM4INXQ97RFGH0744DD.json,1,standard,FALSE
8668.870000001276,round,NA,844256,3,E,16,unknown,5,/Users/dan/Projects/callab/tunkel/Negation2.0/raw_data/Experiment3/positionA/production-results/336OE47KI29I333Z8FAI49AO3MPVWW-3AMYWKA6YCBS5ODQ6NG2Z7CU0CH6OX.json,1,standard,FALSE
2056.0699999987846,cat,NA,847167,4,5,B,known,5,/Users/dan/Projects/callab/tunkel/Negation2.0/raw_data/Experiment3/positionA/production-results/336OE47KI29I333Z8FAI49AO3MPVWW-3AMYWKA6YCBS5ODQ6NG2Z7CU0CH6OX.json,1,standard,FALSE
2494.365000002319,cat,NA,852267,5,8,B,known,5,/Users/dan/Projects/callab/tunkel/Negation2.0/raw_data/Experiment3/positionA/production-results/336OE47KI29I333Z8FAI49AO3MPVWW-3AMYWKA6YCBS5ODQ6NG2Z7CU0CH6OX.json,2,standard,FALSE
1893.785000000149,cat,NA,857265,6,10,B,known,5,/Users/dan/Projects/callab/tunkel/Negation2.0/raw_data/Experiment3/positionA/production-results/336OE47KI29I333Z8FAI49AO3MPVWW-3AMYWKA6YCBS5ODQ6NG2Z7CU0CH6OX.json,3,standard,FALSE
5389.1449999974575,blocks,NA,864009,7,H,15,unknown,5,/Users/dan/Projects/callab/tunkel/Negation2.0/raw_data/Experiment3/positionA/production-results/336OE47KI29I333Z8FAI49AO3MPVWW-3AMYWKA6YCBS5ODQ6NG2Z7CU0CH6OX.json,1,switch,FALSE
3421.954999997979,shoe,NA,868535,8,3,C,known,5,/Users/dan/Projects/callab/tunkel/Negation2.0/raw_data/Experiment3/positionA/production-results/336OE47KI29I333Z8FAI49AO3MPVWW-3AMYWKA6YCBS5ODQ6NG2Z7CU0CH6OX.json,1,standard,FALSE
3640.094999998808,top,NA,874029,9,I,12,unknown,5,/Users/dan/Projects/callab/tunkel/Negation2.0/raw_data/Experiment3/positionA/production-results/336OE47KI29I333Z8FAI49AO3MPVWW-3AMYWKA6YCBS5ODQ6NG2Z7CU0CH6OX.json,1,standard,FALSE
9528.024999999558,not pet,NA,885044,10,B,6,unknown,5,/Users/dan/Projects/callab/tunkel/Negation2.0/raw_data/Experiment3/positionA/production-results/336OE47KI29I333Z8FAI49AO3MPVWW-3AMYWKA6YCBS5ODQ6NG2Z7CU0CH6OX.json,1,standard,TRUE
3616.0000000017462,ring,NA,889515,11,11,F,known,5,/Users/dan/Projects/callab/tunkel/Negation2.0/raw_data/Experiment3/positionA/production-results/336OE47KI29I333Z8FAI49AO3MPVWW-3AMYWKA6YCBS5ODQ6NG2Z7CU0CH6OX.json,1,standard,FALSE
3949.2899999967776,balls,NA,895569,12,D,1,unknown,5,/Users/dan/Projects/callab/tunkel/Negation2.0/raw_data/Experiment3/positionA/production-results/336OE47KI29I333Z8FAI49AO3MPVWW-3AMYWKA6YCBS5ODQ6NG2Z7CU0CH6OX.json,1,standard,FALSE
2710.5449999981793,balls,NA,899634,13,M,1,unknown,5,/Users/dan/Projects/callab/tunkel/Negation2.0/raw_data/Experiment3/positionA/production-results/336OE47KI29I333Z8FAI49AO3MPVWW-3AMYWKA6YCBS5ODQ6NG2Z7CU0CH6OX.json,2,standard,FALSE
2994.3999999995576,balls,NA,903733,14,J,1,unknown,5,/Users/dan/Projects/callab/tunkel/Negation2.0/raw_data/Experiment3/positionA/production-results/336OE47KI29I333Z8FAI49AO3MPVWW-3AMYWKA6YCBS5ODQ6NG2Z7CU0CH6OX.json,3,standard,FALSE
123345.580000001,flower,NA,1028684,15,4,L,known,5,/Users/dan/Projects/callab/tunkel/Negation2.0/raw_data/Experiment3/positionA/production-results/336OE47KI29I333Z8FAI49AO3MPVWW-3AMYWKA6YCBS5ODQ6NG2Z7CU0CH6OX.json,1,switch,FALSE
4572.055000000633,art,NA,1036088,16,G,7,unknown,5,/Users/dan/Projects/callab/tunkel/Negation2.0/raw_data/Experiment3/positionA/production-results/336OE47KI29I333Z8FAI49AO3MPVWW-3AMYWKA6YCBS5ODQ6NG2Z7CU0CH6OX.json,1,standard,FALSE
3434.94500000088,butterfly,NA,1040878,17,2,K,known,5,/Users/dan/Projects/callab/tunkel/Negation2.0/raw_data/Experiment3/positionA/production-results/336OE47KI29I333Z8FAI49AO3MPVWW-3AMYWKA6YCBS5ODQ6NG2Z7CU0CH6OX.json,1,standard,FALSE
3076.6899999980815,crab,NA,1045558,18,1,N,known,5,/Users/dan/Projects/callab/tunkel/Negation2.0/raw_data/Experiment3/positionA/production-results/336OE47KI29I333Z8FAI49AO3MPVWW-3AMYWKA6YCBS5ODQ6NG2Z7CU0CH6OX.json,1,standard,FALSE
7727.234999998473,dice,NA,123317,3,11,H,known,6,/Users/dan/Projects/callab/tunkel/Negation2.0/raw_data/Experiment3/positionB/production-results/3WGZLY9VCHBLJL7VJRUIK71VL8J8DW-3RU7GD8VPPIFDMNOS0WKPCDCS6KSPW.json,1,standard,FALSE
6489.824999938719,blimp,NA,130669,4,G,16,unknown,6,/Users/dan/Projects/callab/tunkel/Negation2.0/raw_data/Experiment3/positionB/production-results/3WGZLY9VCHBLJL7VJRUIK71VL8J8DW-3RU7GD8VPPIFDMNOS0WKPCDCS6KSPW.json,1,standard,FALSE
30395.03000001423,,NA,164179,5,E,16,unknown,6,/Users/dan/Projects/callab/tunkel/Negation2.0/raw_data/Experiment3/positionB/production-results/3WGZLY9VCHBLJL7VJRUIK71VL8J8DW-3RU7GD8VPPIFDMNOS0WKPCDCS6KSPW.json,2,standard,FALSE
6542.684999993071,blimp,NA,171842,6,N,16,unknown,6,/Users/dan/Projects/callab/tunkel/Negation2.0/raw_data/Experiment3/positionB/production-results/3WGZLY9VCHBLJL7VJRUIK71VL8J8DW-3RU7GD8VPPIFDMNOS0WKPCDCS6KSPW.json,3,standard,FALSE
3427.7899999869987,shoe,NA,176883,7,1,C,known,6,/Users/dan/Projects/callab/tunkel/Negation2.0/raw_data/Experiment3/positionB/production-results/3WGZLY9VCHBLJL7VJRUIK71VL8J8DW-3RU7GD8VPPIFDMNOS0WKPCDCS6KSPW.json,1,switch,FALSE
14091.929999995045,ball,NA,192586,8,K,8,unknown,6,/Users/dan/Projects/callab/tunkel/Negation2.0/raw_data/Experiment3/positionB/production-results/3WGZLY9VCHBLJL7VJRUIK71VL8J8DW-3RU7GD8VPPIFDMNOS0WKPCDCS6KSPW.json,1,standard,FALSE
3927.4399999994785,pen,NA,197377,9,6,D,known,6,/Users/dan/Projects/callab/tunkel/Negation2.0/raw_data/Experiment3/positionB/production-results/3WGZLY9VCHBLJL7VJRUIK71VL8J8DW-3RU7GD8VPPIFDMNOS0WKPCDCS6KSPW.json,1,standard,FALSE
4084.595000022091,cup,NA,203331,10,16,M,known,6,/Users/dan/Projects/callab/tunkel/Negation2.0/raw_data/Experiment3/positionB/production-results/3WGZLY9VCHBLJL7VJRUIK71VL8J8DW-3RU7GD8VPPIFDMNOS0WKPCDCS6KSPW.json,1,standard,FALSE
7208.044999977574,balloon,NA,211650,11,I,10,unknown,6,/Users/dan/Projects/callab/tunkel/Negation2.0/raw_data/Experiment3/positionB/production-results/3WGZLY9VCHBLJL7VJRUIK71VL8J8DW-3RU7GD8VPPIFDMNOS0WKPCDCS6KSPW.json,1,standard,FALSE
4857.304999954067,cat,NA,218618,12,5,B,known,6,/Users/dan/Projects/callab/tunkel/Negation2.0/raw_data/Experiment3/positionB/production-results/3WGZLY9VCHBLJL7VJRUIK71VL8J8DW-3RU7GD8VPPIFDMNOS0WKPCDCS6KSPW.json,1,standard,FALSE
2664.7099999245256,cat,NA,222899,13,3,B,known,6,/Users/dan/Projects/callab/tunkel/Negation2.0/raw_data/Experiment3/positionB/production-results/3WGZLY9VCHBLJL7VJRUIK71VL8J8DW-3RU7GD8VPPIFDMNOS0WKPCDCS6KSPW.json,2,standard,FALSE
2505.8999999891967,cat,NA,226266,14,12,B,known,6,/Users/dan/Projects/callab/tunkel/Negation2.0/raw_data/Experiment3/positionB/production-results/3WGZLY9VCHBLJL7VJRUIK71VL8J8DW-3RU7GD8VPPIFDMNOS0WKPCDCS6KSPW.json,3,standard,FALSE
24029.424999956973,four with donut,NA,251408,15,L,4,unknown,6,/Users/dan/Projects/callab/tunkel/Negation2.0/raw_data/Experiment3/positionB/production-results/3WGZLY9VCHBLJL7VJRUIK71VL8J8DW-3RU7GD8VPPIFDMNOS0WKPCDCS6KSPW.json,1,switch,FALSE
4315.594999934547,ring,NA,258337,16,2,F,known,6,/Users/dan/Projects/callab/tunkel/Negation2.0/raw_data/Experiment3/positionB/production-results/3WGZLY9VCHBLJL7VJRUIK71VL8J8DW-3RU7GD8VPPIFDMNOS0WKPCDCS6KSPW.json,1,standard,FALSE
13691.385000012815,wings up touching,NA,273640,17,A,7,unknown,6,/Users/dan/Projects/callab/tunkel/Negation2.0/raw_data/Experiment3/positionB/production-results/3WGZLY9VCHBLJL7VJRUIK71VL8J8DW-3RU7GD8VPPIFDMNOS0WKPCDCS6KSPW.json,1,standard,FALSE
6854.019999969751,stacked blocks,NA,283607,18,B,15,unknown,6,/Users/dan/Projects/callab/tunkel/Negation2.0/raw_data/Experiment3/positionB/production-results/3WGZLY9VCHBLJL7VJRUIK71VL8J8DW-3RU7GD8VPPIFDMNOS0WKPCDCS6KSPW.json,1,standard,FALSE
1543.3949999860488,car,NA,71659,3,7,I,known,7,/Users/dan/Projects/callab/tunkel/Negation2.0/raw_data/Experiment3/positionB/production-results/3WGZLY9VCHBLJL7VJRUIK71VL8J8DW-3G5F9DBFOQM3SX643ITKRQVS5JTVHO.json,1,standard,FALSE
8073.8450000062585,feather thing,NA,81099,4,C,4,unknown,7,/Users/dan/Projects/callab/tunkel/Negation2.0/raw_data/Experiment3/positionB/production-results/3WGZLY9VCHBLJL7VJRUIK71VL8J8DW-3G5F9DBFOQM3SX643ITKRQVS5JTVHO.json,1,standard,FALSE
4285.9799999860115,feather thing,NA,86502,5,H,4,unknown,7,/Users/dan/Projects/callab/tunkel/Negation2.0/raw_data/Experiment3/positionB/production-results/3WGZLY9VCHBLJL7VJRUIK71VL8J8DW-3G5F9DBFOQM3SX643ITKRQVS5JTVHO.json,2,standard,FALSE
5103.490000008605,feather thing,NA,94221,6,J,4,unknown,7,/Users/dan/Projects/callab/tunkel/Negation2.0/raw_data/Experiment3/positionB/production-results/3WGZLY9VCHBLJL7VJRUIK71VL8J8DW-3G5F9DBFOQM3SX643ITKRQVS5JTVHO.json,3,standard,FALSE
1818.10500001302,fork,NA,99147,7,5,G,known,7,/Users/dan/Projects/callab/tunkel/Negation2.0/raw_data/Experiment3/positionB/production-results/3WGZLY9VCHBLJL7VJRUIK71VL8J8DW-3G5F9DBFOQM3SX643ITKRQVS5JTVHO.json,1,switch,FALSE
8240.099999995437,clam,NA,110009,8,K,12,unknown,7,/Users/dan/Projects/callab/tunkel/Negation2.0/raw_data/Experiment3/positionB/production-results/3WGZLY9VCHBLJL7VJRUIK71VL8J8DW-3G5F9DBFOQM3SX643ITKRQVS5JTVHO.json,1,standard,FALSE
2686.5749999997206,chair,NA,114305,9,2,E,known,7,/Users/dan/Projects/callab/tunkel/Negation2.0/raw_data/Experiment3/positionB/production-results/3WGZLY9VCHBLJL7VJRUIK71VL8J8DW-3G5F9DBFOQM3SX643ITKRQVS5JTVHO.json,1,standard,FALSE
2322.0349999610335,apple,NA,119748,10,4,A,known,7,/Users/dan/Projects/callab/tunkel/Negation2.0/raw_data/Experiment3/positionB/production-results/3WGZLY9VCHBLJL7VJRUIK71VL8J8DW-3G5F9DBFOQM3SX643ITKRQVS5JTVHO.json,1,standard,FALSE
4865.180000022519,spiky,NA,126473,11,F,1,unknown,7,/Users/dan/Projects/callab/tunkel/Negation2.0/raw_data/Experiment3/positionB/production-results/3WGZLY9VCHBLJL7VJRUIK71VL8J8DW-3G5F9DBFOQM3SX643ITKRQVS5JTVHO.json,1,standard,FALSE
4335.215000028256,cat,NA,133924,12,15,B,known,7,/Users/dan/Projects/callab/tunkel/Negation2.0/raw_data/Experiment3/positionB/production-results/3WGZLY9VCHBLJL7VJRUIK71VL8J8DW-3G5F9DBFOQM3SX643ITKRQVS5JTVHO.json,1,standard,FALSE
1279.5200000400655,cat,NA,137813,13,6,B,known,7,/Users/dan/Projects/callab/tunkel/Negation2.0/raw_data/Experiment3/positionB/production-results/3WGZLY9VCHBLJL7VJRUIK71VL8J8DW-3G5F9DBFOQM3SX643ITKRQVS5JTVHO.json,2,standard,FALSE
1376.0499999625608,cat,NA,140569,14,9,B,known,7,/Users/dan/Projects/callab/tunkel/Negation2.0/raw_data/Experiment3/positionB/production-results/3WGZLY9VCHBLJL7VJRUIK71VL8J8DW-3G5F9DBFOQM3SX643ITKRQVS5JTVHO.json,3,standard,FALSE
5017.87499996135,ball,NA,148704,15,N,8,unknown,7,/Users/dan/Projects/callab/tunkel/Negation2.0/raw_data/Experiment3/positionB/production-results/3WGZLY9VCHBLJL7VJRUIK71VL8J8DW-3G5F9DBFOQM3SX643ITKRQVS5JTVHO.json,1,switch,FALSE
2854.7949999920093,sunflower,NA,154171,16,11,L,known,7,/Users/dan/Projects/callab/tunkel/Negation2.0/raw_data/Experiment3/positionB/production-results/3WGZLY9VCHBLJL7VJRUIK71VL8J8DW-3G5F9DBFOQM3SX643ITKRQVS5JTVHO.json,1,standard,FALSE
5819.2699999781325,not pen,NA,161103,17,D,3,unknown,7,/Users/dan/Projects/callab/tunkel/Negation2.0/raw_data/Experiment3/positionB/production-results/3WGZLY9VCHBLJL7VJRUIK71VL8J8DW-3G5F9DBFOQM3SX643ITKRQVS5JTVHO.json,1,standard,TRUE
5444.429999974091,baster,NA,169661,18,B,10,unknown,7,/Users/dan/Projects/callab/tunkel/Negation2.0/raw_data/Experiment3/positionB/production-results/3WGZLY9VCHBLJL7VJRUIK71VL8J8DW-3G5F9DBFOQM3SX643ITKRQVS5JTVHO.json,1,standard,FALSE
3308.7199999717996,fork,NA,570836,3,11,G,known,8,/Users/dan/Projects/callab/tunkel/Negation2.0/raw_data/Experiment3/positionB/production-results/3OID399FXGWUY0HIR50OUZIH8CWDFI-3K5TEWLKGW03OSHO90B5R2W75W8VIH.json,1,standard,FALSE
13799.410000036005,rock,NA,586742,4,M,3,unknown,8,/Users/dan/Projects/callab/tunkel/Negation2.0/raw_data/Experiment3/positionB/production-results/3OID399FXGWUY0HIR50OUZIH8CWDFI-3K5TEWLKGW03OSHO90B5R2W75W8VIH.json,1,standard,FALSE
6967.974999977741,bread,NA,595815,5,F,3,unknown,8,/Users/dan/Projects/callab/tunkel/Negation2.0/raw_data/Experiment3/positionB/production-results/3OID399FXGWUY0HIR50OUZIH8CWDFI-3K5TEWLKGW03OSHO90B5R2W75W8VIH.json,2,standard,FALSE
5042.925000016112,hat,NA,603964,6,A,3,unknown,8,/Users/dan/Projects/callab/tunkel/Negation2.0/raw_data/Experiment3/positionB/production-results/3OID399FXGWUY0HIR50OUZIH8CWDFI-3K5TEWLKGW03OSHO90B5R2W75W8VIH.json,3,standard,FALSE
3354.5450000092387,tree,NA,608424,7,5,J,known,8,/Users/dan/Projects/callab/tunkel/Negation2.0/raw_data/Experiment3/positionB/production-results/3OID399FXGWUY0HIR50OUZIH8CWDFI-3K5TEWLKGW03OSHO90B5R2W75W8VIH.json,1,switch,FALSE
5570.394999987911,trash,NA,615850,8,N,8,unknown,8,/Users/dan/Projects/callab/tunkel/Negation2.0/raw_data/Experiment3/positionB/production-results/3OID399FXGWUY0HIR50OUZIH8CWDFI-3K5TEWLKGW03OSHO90B5R2W75W8VIH.json,1,standard,FALSE
3275.450000015553,chair,NA,619980,9,9,E,known,8,/Users/dan/Projects/callab/tunkel/Negation2.0/raw_data/Experiment3/positionB/production-results/3OID399FXGWUY0HIR50OUZIH8CWDFI-3K5TEWLKGW03OSHO90B5R2W75W8VIH.json,1,standard,FALSE
3047.550000017509,shoe,NA,624884,10,3,C,known,8,/Users/dan/Projects/callab/tunkel/Negation2.0/raw_data/Experiment3/positionB/production-results/3OID399FXGWUY0HIR50OUZIH8CWDFI-3K5TEWLKGW03OSHO90B5R2W75W8VIH.json,1,standard,FALSE
14291.815000004135,gyroscope,NA,640532,11,I,12,unknown,8,/Users/dan/Projects/callab/tunkel/Negation2.0/raw_data/Experiment3/positionB/production-results/3OID399FXGWUY0HIR50OUZIH8CWDFI-3K5TEWLKGW03OSHO90B5R2W75W8VIH.json,1,standard,FALSE
2827.835000003688,dice,NA,644716,12,7,H,known,8,/Users/dan/Projects/callab/tunkel/Negation2.0/raw_data/Experiment3/positionB/production-results/3OID399FXGWUY0HIR50OUZIH8CWDFI-3K5TEWLKGW03OSHO90B5R2W75W8VIH.json,1,standard,FALSE
2567.3400000086986,dice,NA,648141,13,1,H,known,8,/Users/dan/Projects/callab/tunkel/Negation2.0/raw_data/Experiment3/positionB/production-results/3OID399FXGWUY0HIR50OUZIH8CWDFI-3K5TEWLKGW03OSHO90B5R2W75W8VIH.json,2,standard,FALSE
1919.129999994766,dice,NA,651915,14,16,H,known,8,/Users/dan/Projects/callab/tunkel/Negation2.0/raw_data/Experiment3/positionB/production-results/3OID399FXGWUY0HIR50OUZIH8CWDFI-3K5TEWLKGW03OSHO90B5R2W75W8VIH.json,3,standard,FALSE
11514.72500001546,suction,NA,666036,15,D,10,unknown,8,/Users/dan/Projects/callab/tunkel/Negation2.0/raw_data/Experiment3/positionB/production-results/3OID399FXGWUY0HIR50OUZIH8CWDFI-3K5TEWLKGW03OSHO90B5R2W75W8VIH.json,1,switch,FALSE
1838.7900000088848,cat,NA,669979,16,15,B,known,8,/Users/dan/Projects/callab/tunkel/Negation2.0/raw_data/Experiment3/positionB/production-results/3OID399FXGWUY0HIR50OUZIH8CWDFI-3K5TEWLKGW03OSHO90B5R2W75W8VIH.json,1,standard,FALSE
15430.150000029244,plunger,NA,688515,17,L,4,unknown,8,/Users/dan/Projects/callab/tunkel/Negation2.0/raw_data/Experiment3/positionB/production-results/3OID399FXGWUY0HIR50OUZIH8CWDFI-3K5TEWLKGW03OSHO90B5R2W75W8VIH.json,1,standard,FALSE
6886.275000055321,vase,NA,698507,18,H,2,unknown,8,/Users/dan/Projects/callab/tunkel/Negation2.0/raw_data/Experiment3/positionB/production-results/3OID399FXGWUY0HIR50OUZIH8CWDFI-3K5TEWLKGW03OSHO90B5R2W75W8VIH.json,1,standard,FALSE
43248.51999996463,weird shape with 5 legs,NA,146474,3,E,5,unknown,9,/Users/dan/Projects/callab/tunkel/Negation2.0/raw_data/Experiment3/positionA/production-results/336OE47KI29I333Z8FAI49AO3MPVWW-386CSBG1O0BVQ0Q6L086OC7UFDZ6Q5.json,1,standard,FALSE
6092.854999995325,pen,NA,155171,4,16,D,known,9,/Users/dan/Projects/callab/tunkel/Negation2.0/raw_data/Experiment3/positionA/production-results/336OE47KI29I333Z8FAI49AO3MPVWW-386CSBG1O0BVQ0Q6L086OC7UFDZ6Q5.json,1,standard,FALSE
5090.105000010226,pen,NA,161364,5,10,D,known,9,/Users/dan/Projects/callab/tunkel/Negation2.0/raw_data/Experiment3/positionA/production-results/336OE47KI29I333Z8FAI49AO3MPVWW-386CSBG1O0BVQ0Q6L086OC7UFDZ6Q5.json,2,standard,FALSE
3362.444999977015,pen,NA,166581,6,3,D,known,9,/Users/dan/Projects/callab/tunkel/Negation2.0/raw_data/Experiment3/positionA/production-results/336OE47KI29I333Z8FAI49AO3MPVWW-386CSBG1O0BVQ0Q6L086OC7UFDZ6Q5.json,3,standard,FALSE
11772.50500000082,something that holds a rope,NA,179206,7,C,6,unknown,9,/Users/dan/Projects/callab/tunkel/Negation2.0/raw_data/Experiment3/positionA/production-results/336OE47KI29I333Z8FAI49AO3MPVWW-386CSBG1O0BVQ0Q6L086OC7UFDZ6Q5.json,1,switch,FALSE
5243.475000024773,flower,NA,186304,8,12,L,known,9,/Users/dan/Projects/callab/tunkel/Negation2.0/raw_data/Experiment3/positionA/production-results/336OE47KI29I333Z8FAI49AO3MPVWW-386CSBG1O0BVQ0Q6L086OC7UFDZ6Q5.json,1,standard,FALSE
31825.929999991786,weird shape with many extrusions like 2 balls,NA,219484,9,B,1,unknown,9,/Users/dan/Projects/callab/tunkel/Negation2.0/raw_data/Experiment3/positionA/production-results/336OE47KI29I333Z8FAI49AO3MPVWW-386CSBG1O0BVQ0Q6L086OC7UFDZ6Q5.json,1,standard,FALSE
21217.495000048075,weird spherical shape with many extrusions,NA,242054,10,D,11,unknown,9,/Users/dan/Projects/callab/tunkel/Negation2.0/raw_data/Experiment3/positionA/production-results/336OE47KI29I333Z8FAI49AO3MPVWW-386CSBG1O0BVQ0Q6L086OC7UFDZ6Q5.json,1,standard,FALSE
10538.530000019819,scorpion,NA,253696,11,7,N,known,9,/Users/dan/Projects/callab/tunkel/Negation2.0/raw_data/Experiment3/positionA/production-results/336OE47KI29I333Z8FAI49AO3MPVWW-386CSBG1O0BVQ0Q6L086OC7UFDZ6Q5.json,1,standard,FALSE
13058.0600000103,puzzle blocks,NA,268858,12,K,15,unknown,9,/Users/dan/Projects/callab/tunkel/Negation2.0/raw_data/Experiment3/positionA/production-results/336OE47KI29I333Z8FAI49AO3MPVWW-386CSBG1O0BVQ0Q6L086OC7UFDZ6Q5.json,1,standard,FALSE
6845.4299999866635,puzzle blocks,NA,278307,13,A,15,unknown,9,/Users/dan/Projects/callab/tunkel/Negation2.0/raw_data/Experiment3/positionA/production-results/336OE47KI29I333Z8FAI49AO3MPVWW-386CSBG1O0BVQ0Q6L086OC7UFDZ6Q5.json,2,standard,FALSE
5019.889999995939,puzzle blocks,NA,284179,14,G,15,unknown,9,/Users/dan/Projects/callab/tunkel/Negation2.0/raw_data/Experiment3/positionA/production-results/336OE47KI29I333Z8FAI49AO3MPVWW-386CSBG1O0BVQ0Q6L086OC7UFDZ6Q5.json,3,standard,FALSE
3165.385000000242,tree,NA,289948,15,8,J,known,9,/Users/dan/Projects/callab/tunkel/Negation2.0/raw_data/Experiment3/positionA/production-results/336OE47KI29I333Z8FAI49AO3MPVWW-386CSBG1O0BVQ0Q6L086OC7UFDZ6Q5.json,1,switch,FALSE
18237.005000002682,donut shape with 4 legs,NA,310038,16,F,4,unknown,9,/Users/dan/Projects/callab/tunkel/Negation2.0/raw_data/Experiment3/positionA/production-results/336OE47KI29I333Z8FAI49AO3MPVWW-386CSBG1O0BVQ0Q6L086OC7UFDZ6Q5.json,1,standard,FALSE
4428.5950000048615,cup,NA,317071,17,2,M,known,9,/Users/dan/Projects/callab/tunkel/Negation2.0/raw_data/Experiment3/positionA/production-results/336OE47KI29I333Z8FAI49AO3MPVWW-386CSBG1O0BVQ0Q6L086OC7UFDZ6Q5.json,1,standard,FALSE
4461.780000012368,dice,NA,323136,18,15,H,known,9,/Users/dan/Projects/callab/tunkel/Negation2.0/raw_data/Experiment3/positionA/production-results/336OE47KI29I333Z8FAI49AO3MPVWW-386CSBG1O0BVQ0Q6L086OC7UFDZ6Q5.json,1,standard,FALSE
3540.385000000242,shoe,NA,383260,3,2,C,known,10,/Users/dan/Projects/callab/tunkel/Negation2.0/raw_data/Experiment3/positionB/production-results/3OID399FXGWUY0HIR50OUZIH8CWDFI-3SNVL38CI5HYVE1CIM1CEQNVCTIKCJ.json,1,standard,FALSE
7847.9549999465235,donut,NA,394214,4,L,4,unknown,10,/Users/dan/Projects/callab/tunkel/Negation2.0/raw_data/Experiment3/positionB/production-results/3OID399FXGWUY0HIR50OUZIH8CWDFI-3SNVL38CI5HYVE1CIM1CEQNVCTIKCJ.json,1,standard,FALSE
3290.0050000171177,donut,NA,398610,5,G,4,unknown,10,/Users/dan/Projects/callab/tunkel/Negation2.0/raw_data/Experiment3/positionB/production-results/3OID399FXGWUY0HIR50OUZIH8CWDFI-3SNVL38CI5HYVE1CIM1CEQNVCTIKCJ.json,2,standard,FALSE
4122.679999971297,donut,NA,403593,6,H,4,unknown,10,/Users/dan/Projects/callab/tunkel/Negation2.0/raw_data/Experiment3/positionB/production-results/3OID399FXGWUY0HIR50OUZIH8CWDFI-3SNVL38CI5HYVE1CIM1CEQNVCTIKCJ.json,3,standard,FALSE
2901.73500002129,crab,NA,407851,7,9,N,known,10,/Users/dan/Projects/callab/tunkel/Negation2.0/raw_data/Experiment3/positionB/production-results/3OID399FXGWUY0HIR50OUZIH8CWDFI-3SNVL38CI5HYVE1CIM1CEQNVCTIKCJ.json,1,switch,FALSE
5448.489999980666,white,NA,415412,8,A,3,unknown,10,/Users/dan/Projects/callab/tunkel/Negation2.0/raw_data/Experiment3/positionB/production-results/3OID399FXGWUY0HIR50OUZIH8CWDFI-3SNVL38CI5HYVE1CIM1CEQNVCTIKCJ.json,1,standard,FALSE
2143.800000019837,cat,NA,420664,9,10,B,known,10,/Users/dan/Projects/callab/tunkel/Negation2.0/raw_data/Experiment3/positionB/production-results/3OID399FXGWUY0HIR50OUZIH8CWDFI-3SNVL38CI5HYVE1CIM1CEQNVCTIKCJ.json,1,standard,FALSE
2451.1899999924935,cup,NA,424223,10,4,M,known,10,/Users/dan/Projects/callab/tunkel/Negation2.0/raw_data/Experiment3/positionB/production-results/3OID399FXGWUY0HIR50OUZIH8CWDFI-3SNVL38CI5HYVE1CIM1CEQNVCTIKCJ.json,1,standard,FALSE
6883.184999984223,plastic,NA,434214,11,K,11,unknown,10,/Users/dan/Projects/callab/tunkel/Negation2.0/raw_data/Experiment3/positionB/production-results/3OID399FXGWUY0HIR50OUZIH8CWDFI-3SNVL38CI5HYVE1CIM1CEQNVCTIKCJ.json,1,standard,FALSE
2194.1400000359863,chair,NA,437518,12,5,E,known,10,/Users/dan/Projects/callab/tunkel/Negation2.0/raw_data/Experiment3/positionB/production-results/3OID399FXGWUY0HIR50OUZIH8CWDFI-3SNVL38CI5HYVE1CIM1CEQNVCTIKCJ.json,1,standard,FALSE
2505.8250000001863,chair,NA,441382,13,6,E,known,10,/Users/dan/Projects/callab/tunkel/Negation2.0/raw_data/Experiment3/positionB/production-results/3OID399FXGWUY0HIR50OUZIH8CWDFI-3SNVL38CI5HYVE1CIM1CEQNVCTIKCJ.json,2,standard,FALSE
1852.8850000002421,chair,NA,445093,14,1,E,known,10,/Users/dan/Projects/callab/tunkel/Negation2.0/raw_data/Experiment3/positionB/production-results/3OID399FXGWUY0HIR50OUZIH8CWDFI-3SNVL38CI5HYVE1CIM1CEQNVCTIKCJ.json,3,standard,FALSE
7122.060000023339,flat,NA,453826,15,D,7,unknown,10,/Users/dan/Projects/callab/tunkel/Negation2.0/raw_data/Experiment3/positionB/production-results/3OID399FXGWUY0HIR50OUZIH8CWDFI-3SNVL38CI5HYVE1CIM1CEQNVCTIKCJ.json,1,switch,FALSE
1548.845000041183,ring,NA,456483,16,8,F,known,10,/Users/dan/Projects/callab/tunkel/Negation2.0/raw_data/Experiment3/positionB/production-results/3OID399FXGWUY0HIR50OUZIH8CWDFI-3SNVL38CI5HYVE1CIM1CEQNVCTIKCJ.json,1,standard,FALSE
2070.9700000006706,blocks,NA,460412,17,I,15,unknown,10,/Users/dan/Projects/callab/tunkel/Negation2.0/raw_data/Experiment3/positionB/production-results/3OID399FXGWUY0HIR50OUZIH8CWDFI-3SNVL38CI5HYVE1CIM1CEQNVCTIKCJ.json,1,standard,FALSE
6808.469999989029,top,NA,469331,18,E,12,unknown,10,/Users/dan/Projects/callab/tunkel/Negation2.0/raw_data/Experiment3/positionB/production-results/3OID399FXGWUY0HIR50OUZIH8CWDFI-3SNVL38CI5HYVE1CIM1CEQNVCTIKCJ.json,1,standard,FALSE
593.9650000073016,asdf,NA,47995,3,H,9,unknown,11,/Users/dan/Projects/callab/tunkel/Negation2.0/raw_data/Experiment3/positionA/sandbox-results/359AP8GAGG97EFWY9Q25MC0ZSE2C7X-3IJXV6UZ1Y8BVL070G1ZRGLBAWRRI0.json,1,standard,FALSE
524.9049999983981,dfg,NA,56920,3,4,H,known,11,/Users/dan/Projects/callab/tunkel/Negation2.0/raw_data/Experiment3/positionB/sandbox-results/366FYU4PTGEA6SNWOBX9G55OJAFEKY-33JKGHPFYDJCC6Y6SOIAAPNIQ8MMNN.json,1,standard,FALSE
456.03500001016073,s,NA,49810,4,6,F,known,11,/Users/dan/Projects/callab/tunkel/Negation2.0/raw_data/Experiment3/positionA/sandbox-results/359AP8GAGG97EFWY9Q25MC0ZSE2C7X-3IJXV6UZ1Y8BVL070G1ZRGLBAWRRI0.json,1,standard,FALSE
885.8799999870826,sdfg,NA,60912,4,D,11,unknown,11,/Users/dan/Projects/callab/tunkel/Negation2.0/raw_data/Experiment3/positionB/sandbox-results/366FYU4PTGEA6SNWOBX9G55OJAFEKY-33JKGHPFYDJCC6Y6SOIAAPNIQ8MMNN.json,1,standard,FALSE
833.6899999994785,sdf,NA,52502,5,1,F,known,11,/Users/dan/Projects/callab/tunkel/Negation2.0/raw_data/Experiment3/positionA/sandbox-results/359AP8GAGG97EFWY9Q25MC0ZSE2C7X-3IJXV6UZ1Y8BVL070G1ZRGLBAWRRI0.json,2,standard,FALSE
1907.2449999803212,sdfg,NA,64676,5,L,11,unknown,11,/Users/dan/Projects/callab/tunkel/Negation2.0/raw_data/Experiment3/positionB/sandbox-results/366FYU4PTGEA6SNWOBX9G55OJAFEKY-33JKGHPFYDJCC6Y6SOIAAPNIQ8MMNN.json,2,standard,FALSE
418.05000000749715,fsda,NA,56028,6,11,F,known,11,/Users/dan/Projects/callab/tunkel/Negation2.0/raw_data/Experiment3/positionA/sandbox-results/359AP8GAGG97EFWY9Q25MC0ZSE2C7X-3IJXV6UZ1Y8BVL070G1ZRGLBAWRRI0.json,3,standard,FALSE
760.7250000000931,sd,NA,66540,6,I,11,unknown,11,/Users/dan/Projects/callab/tunkel/Negation2.0/raw_data/Experiment3/positionB/sandbox-results/366FYU4PTGEA6SNWOBX9G55OJAFEKY-33JKGHPFYDJCC6Y6SOIAAPNIQ8MMNN.json,3,switch,FALSE
352.1300000138581,sf,NA,58986,7,A,12,unknown,11,/Users/dan/Projects/callab/tunkel/Negation2.0/raw_data/Experiment3/positionA/sandbox-results/359AP8GAGG97EFWY9Q25MC0ZSE2C7X-3IJXV6UZ1Y8BVL070G1ZRGLBAWRRI0.json,1,switch,FALSE
457.0299999904819,sdg,NA,68603,7,5,N,known,11,/Users/dan/Projects/callab/tunkel/Negation2.0/raw_data/Experiment3/positionB/sandbox-results/366FYU4PTGEA6SNWOBX9G55OJAFEKY-33JKGHPFYDJCC6Y6SOIAAPNIQ8MMNN.json,1,standard,FALSE
400.02499998081475,ds,NA,61996,8,5,D,known,11,/Users/dan/Projects/callab/tunkel/Negation2.0/raw_data/Experiment3/positionA/sandbox-results/359AP8GAGG97EFWY9Q25MC0ZSE2C7X-3IJXV6UZ1Y8BVL070G1ZRGLBAWRRI0.json,1,standard,FALSE
503.2000000064727,sdg,NA,69964,8,J,1,unknown,11,/Users/dan/Projects/callab/tunkel/Negation2.0/raw_data/Experiment3/positionB/sandbox-results/366FYU4PTGEA6SNWOBX9G55OJAFEKY-33JKGHPFYDJCC6Y6SOIAAPNIQ8MMNN.json,1,standard,FALSE
348.8900000229478,s,NA,65454,9,E,2,unknown,11,/Users/dan/Projects/callab/tunkel/Negation2.0/raw_data/Experiment3/positionA/sandbox-results/359AP8GAGG97EFWY9Q25MC0ZSE2C7X-3IJXV6UZ1Y8BVL070G1ZRGLBAWRRI0.json,1,standard,FALSE
830.389999988256,gdf,NA,72655,9,12,K,known,11,/Users/dan/Projects/callab/tunkel/Negation2.0/raw_data/Experiment3/positionB/sandbox-results/366FYU4PTGEA6SNWOBX9G55OJAFEKY-33JKGHPFYDJCC6Y6SOIAAPNIQ8MMNN.json,1,standard,FALSE
461.9599999859929,sa,NA,69027,10,F,8,unknown,11,/Users/dan/Projects/callab/tunkel/Negation2.0/raw_data/Experiment3/positionA/sandbox-results/359AP8GAGG97EFWY9Q25MC0ZSE2C7X-3IJXV6UZ1Y8BVL070G1ZRGLBAWRRI0.json,1,standard,FALSE
835.9599999967031,gd,NA,74849,10,11,A,known,11,/Users/dan/Projects/callab/tunkel/Negation2.0/raw_data/Experiment3/positionB/sandbox-results/366FYU4PTGEA6SNWOBX9G55OJAFEKY-33JKGHPFYDJCC6Y6SOIAAPNIQ8MMNN.json,1,standard,FALSE
755.2250000007916,asdf,NA,72393,11,10,J,known,11,/Users/dan/Projects/callab/tunkel/Negation2.0/raw_data/Experiment3/positionA/sandbox-results/359AP8GAGG97EFWY9Q25MC0ZSE2C7X-3IJXV6UZ1Y8BVL070G1ZRGLBAWRRI0.json,1,standard,FALSE
894.0950000251178,gfd,NA,77851,11,G,8,unknown,11,/Users/dan/Projects/callab/tunkel/Negation2.0/raw_data/Experiment3/positionB/sandbox-results/366FYU4PTGEA6SNWOBX9G55OJAFEKY-33JKGHPFYDJCC6Y6SOIAAPNIQ8MMNN.json,2,standard,FALSE
501.4599999994971,sa,NA,74750,12,N,7,unknown,11,/Users/dan/Projects/callab/tunkel/Negation2.0/raw_data/Experiment3/positionA/sandbox-results/359AP8GAGG97EFWY9Q25MC0ZSE2C7X-3IJXV6UZ1Y8BVL070G1ZRGLBAWRRI0.json,1,standard,FALSE
395.1649999944493,g,NA,80854,12,6,M,known,11,/Users/dan/Projects/callab/tunkel/Negation2.0/raw_data/Experiment3/positionB/sandbox-results/366FYU4PTGEA6SNWOBX9G55OJAFEKY-33JKGHPFYDJCC6Y6SOIAAPNIQ8MMNN.json,1,standard,FALSE
456.8100000033155,s,NA,76064,13,G,7,unknown,11,/Users/dan/Projects/callab/tunkel/Negation2.0/raw_data/Experiment3/positionA/sandbox-results/359AP8GAGG97EFWY9Q25MC0ZSE2C7X-3IJXV6UZ1Y8BVL070G1ZRGLBAWRRI0.json,2,standard,FALSE
736.6899999906309,dgfs,NA,84203,13,9,M,known,11,/Users/dan/Projects/callab/tunkel/Negation2.0/raw_data/Experiment3/positionB/sandbox-results/366FYU4PTGEA6SNWOBX9G55OJAFEKY-33JKGHPFYDJCC6Y6SOIAAPNIQ8MMNN.json,2,standard,FALSE
348.8700000161771,s,NA,78267,14,C,7,unknown,11,/Users/dan/Projects/callab/tunkel/Negation2.0/raw_data/Experiment3/positionA/sandbox-results/359AP8GAGG97EFWY9Q25MC0ZSE2C7X-3IJXV6UZ1Y8BVL070G1ZRGLBAWRRI0.json,3,standard,FALSE
834.0250000183005,gdfs,NA,86891,14,2,M,known,11,/Users/dan/Projects/callab/tunkel/Negation2.0/raw_data/Experiment3/positionB/sandbox-results/366FYU4PTGEA6SNWOBX9G55OJAFEKY-33JKGHPFYDJCC6Y6SOIAAPNIQ8MMNN.json,3,switch,FALSE
638.44999999855645,as,NA,80765,15,16,L,known,11,/Users/dan/Projects/callab/tunkel/Negation2.0/raw_data/Experiment3/positionA/sandbox-results/359AP8GAGG97EFWY9Q25MC0ZSE2C7X-3IJXV6UZ1Y8BVL070G1ZRGLBAWRRI0.json,1,switch,FALSE
701.504999975441,df,NA,89199,15,C,3,unknown,11,/Users/dan/Projects/callab/tunkel/Negation2.0/raw_data/Experiment3/positionB/sandbox-results/366FYU4PTGEA6SNWOBX9G55OJAFEKY-33JKGHPFYDJCC6Y6SOIAAPNIQ8MMNN.json,1,standard,FALSE
533.8300000003073,sa,NA,83906,16,B,3,unknown,11,/Users/dan/Projects/callab/tunkel/Negation2.0/raw_data/Experiment3/positionA/sandbox-results/359AP8GAGG97EFWY9Q25MC0ZSE2C7X-3IJXV6UZ1Y8BVL070G1ZRGLBAWRRI0.json,2,standard,FALSE
410.6399999873247,sdg,NA,91716,16,10,F,known,11,/Users/dan/Projects/callab/tunkel/Negation2.0/raw_data/Experiment3/positionB/sandbox-results/366FYU4PTGEA6SNWOBX9G55OJAFEKY-33JKGHPFYDJCC6Y6SOIAAPNIQ8MMNN.json,4,standard,FALSE
696.5700000000652,asd,NA,85711,17,4,K,known,11,/Users/dan/Projects/callab/tunkel/Negation2.0/raw_data/Experiment3/positionA/sandbox-results/359AP8GAGG97EFWY9Q25MC0ZSE2C7X-3IJXV6UZ1Y8BVL070G1ZRGLBAWRRI0.json,2,standard,FALSE
624.7549999970943,fgd,NA,94948,17,E,16,unknown,11,/Users/dan/Projects/callab/tunkel/Negation2.0/raw_data/Experiment3/positionB/sandbox-results/366FYU4PTGEA6SNWOBX9G55OJAFEKY-33JKGHPFYDJCC6Y6SOIAAPNIQ8MMNN.json,1,standard,FALSE
742.2700000170153,asdf,NA,87564,18,7,I,known,11,/Users/dan/Projects/callab/tunkel/Negation2.0/raw_data/Experiment3/positionA/sandbox-results/359AP8GAGG97EFWY9Q25MC0ZSE2C7X-3IJXV6UZ1Y8BVL070G1ZRGLBAWRRI0.json,1,standard,FALSE
2945.544999995036,sd,NA,99003,18,M,7,unknown,11,/Users/dan/Projects/callab/tunkel/Negation2.0/raw_data/Experiment3/positionB/sandbox-results/366FYU4PTGEA6SNWOBX9G55OJAFEKY-33JKGHPFYDJCC6Y6SOIAAPNIQ8MMNN.json,4,standard,FALSE
3639.649999968242,butterfly,NA,687220,3,6,K,known,12,/Users/dan/Projects/callab/tunkel/Negation2.0/raw_data/Experiment3/positionB/production-results/3OID399FXGWUY0HIR50OUZIH8CWDFI-3OCHAWUVGP9MYCC79IXZS385DB5XKX.json,1,standard,FALSE
13855.214999988675,some kind of weird cube thing,NA,702935,4,A,11,unknown,12,/Users/dan/Projects/callab/tunkel/Negation2.0/raw_data/Experiment3/positionB/production-results/3OID399FXGWUY0HIR50OUZIH8CWDFI-3OCHAWUVGP9MYCC79IXZS385DB5XKX.json,1,standard,FALSE
17093.20000000298,some kind of weird cube thing,NA,721137,5,H,11,unknown,12,/Users/dan/Projects/callab/tunkel/Negation2.0/raw_data/Experiment3/positionB/production-results/3OID399FXGWUY0HIR50OUZIH8CWDFI-3OCHAWUVGP9MYCC79IXZS385DB5XKX.json,2,standard,FALSE
12610.594999976456,some kind of spikey cube thing,NA,735357,6,B,11,unknown,12,/Users/dan/Projects/callab/tunkel/Negation2.0/raw_data/Experiment3/positionB/production-results/3OID399FXGWUY0HIR50OUZIH8CWDFI-3OCHAWUVGP9MYCC79IXZS385DB5XKX.json,3,standard,FALSE
4131.7699999781325,pen,NA,741598,7,12,D,known,12,/Users/dan/Projects/callab/tunkel/Negation2.0/raw_data/Experiment3/positionB/production-results/3OID399FXGWUY0HIR50OUZIH8CWDFI-3OCHAWUVGP9MYCC79IXZS385DB5XKX.json,1,switch,FALSE
3814.4500000053085,blimp,NA,748521,8,C,16,unknown,12,/Users/dan/Projects/callab/tunkel/Negation2.0/raw_data/Experiment3/positionB/production-results/3OID399FXGWUY0HIR50OUZIH8CWDFI-3OCHAWUVGP9MYCC79IXZS385DB5XKX.json,1,standard,FALSE
2464.914999960456,flower,NA,752846,9,3,L,known,12,/Users/dan/Projects/callab/tunkel/Negation2.0/raw_data/Experiment3/positionB/production-results/3OID399FXGWUY0HIR50OUZIH8CWDFI-3OCHAWUVGP9MYCC79IXZS385DB5XKX.json,1,standard,FALSE
2269.7150000021793,crab,NA,756476,10,11,N,known,12,/Users/dan/Projects/callab/tunkel/Negation2.0/raw_data/Experiment3/positionB/production-results/3OID399FXGWUY0HIR50OUZIH8CWDFI-3OCHAWUVGP9MYCC79IXZS385DB5XKX.json,1,standard,FALSE
8549.950000015087,crumpled ball thing,NA,766384,11,G,8,unknown,12,/Users/dan/Projects/callab/tunkel/Negation2.0/raw_data/Experiment3/positionB/production-results/3OID399FXGWUY0HIR50OUZIH8CWDFI-3OCHAWUVGP9MYCC79IXZS385DB5XKX.json,1,standard,FALSE
2558.98500001058,ring,NA,769802,12,10,F,known,12,/Users/dan/Projects/callab/tunkel/Negation2.0/raw_data/Experiment3/positionB/production-results/3OID399FXGWUY0HIR50OUZIH8CWDFI-3OCHAWUVGP9MYCC79IXZS385DB5XKX.json,1,standard,FALSE
1984.4000000157394,ring,NA,772894,13,7,F,known,12,/Users/dan/Projects/callab/tunkel/Negation2.0/raw_data/Experiment3/positionB/production-results/3OID399FXGWUY0HIR50OUZIH8CWDFI-3OCHAWUVGP9MYCC79IXZS385DB5XKX.json,2,standard,FALSE
3645.1649999944493,ring,NA,777397,14,2,F,known,12,/Users/dan/Projects/callab/tunkel/Negation2.0/raw_data/Experiment3/positionB/production-results/3OID399FXGWUY0HIR50OUZIH8CWDFI-3OCHAWUVGP9MYCC79IXZS385DB5XKX.json,3,standard,FALSE
12993.390000017826,long three spikes on each end,NA,793501,15,I,5,unknown,12,/Users/dan/Projects/callab/tunkel/Negation2.0/raw_data/Experiment3/positionB/production-results/3OID399FXGWUY0HIR50OUZIH8CWDFI-3OCHAWUVGP9MYCC79IXZS385DB5XKX.json,1,switch,FALSE
2022.5499999942258,chair,NA,796634,16,1,E,known,12,/Users/dan/Projects/callab/tunkel/Negation2.0/raw_data/Experiment3/positionB/production-results/3OID399FXGWUY0HIR50OUZIH8CWDFI-3OCHAWUVGP9MYCC79IXZS385DB5XKX.json,1,standard,FALSE
9024.060000025202,four balls on rods,NA,807766,17,M,4,unknown,12,/Users/dan/Projects/callab/tunkel/Negation2.0/raw_data/Experiment3/positionB/production-results/3OID399FXGWUY0HIR50OUZIH8CWDFI-3OCHAWUVGP9MYCC79IXZS385DB5XKX.json,1,standard,FALSE
4224.80500000529,blocks,NA,815100,18,F,15,unknown,12,/Users/dan/Projects/callab/tunkel/Negation2.0/raw_data/Experiment3/positionB/production-results/3OID399FXGWUY0HIR50OUZIH8CWDFI-3OCHAWUVGP9MYCC79IXZS385DB5XKX.json,1,standard,FALSE
5269.359999998414,stick thing,NA,86718,3,A,10,unknown,13,/Users/dan/Projects/callab/tunkel/Negation2.0/raw_data/Experiment3/positionA/production-results/336OE47KI29I333Z8FAI49AO3MPVWW-3QHK8ZVMIN7Q5FROPMHII6USJ8NBL6.json,1,standard,FALSE
1993.7649999992573,fork,NA,90067,4,6,G,known,13,/Users/dan/Projects/callab/tunkel/Negation2.0/raw_data/Experiment3/positionA/production-results/336OE47KI29I333Z8FAI49AO3MPVWW-3QHK8ZVMIN7Q5FROPMHII6USJ8NBL6.json,1,standard,FALSE
1732.3550000000978,fork,NA,93654,5,16,G,known,13,/Users/dan/Projects/callab/tunkel/Negation2.0/raw_data/Experiment3/positionA/production-results/336OE47KI29I333Z8FAI49AO3MPVWW-3QHK8ZVMIN7Q5FROPMHII6USJ8NBL6.json,2,standard,FALSE
1194.1599999991013,fork,NA,96202,6,1,G,known,13,/Users/dan/Projects/callab/tunkel/Negation2.0/raw_data/Experiment3/positionA/production-results/336OE47KI29I333Z8FAI49AO3MPVWW-3QHK8ZVMIN7Q5FROPMHII6USJ8NBL6.json,3,standard,FALSE
4170.445000003383,gelatinous object,NA,102228,7,B,2,unknown,13,/Users/dan/Projects/callab/tunkel/Negation2.0/raw_data/Experiment3/positionA/production-results/336OE47KI29I333Z8FAI49AO3MPVWW-3QHK8ZVMIN7Q5FROPMHII6USJ8NBL6.json,1,switch,FALSE
1351.2899999986985,chair,NA,105183,8,5,E,known,13,/Users/dan/Projects/callab/tunkel/Negation2.0/raw_data/Experiment3/positionA/production-results/336OE47KI29I333Z8FAI49AO3MPVWW-3QHK8ZVMIN7Q5FROPMHII6USJ8NBL6.json,1,standard,FALSE
3727.2650000013527,looks like a instrument,NA,110264,9,F,12,unknown,13,/Users/dan/Projects/callab/tunkel/Negation2.0/raw_data/Experiment3/positionA/production-results/336OE47KI29I333Z8FAI49AO3MPVWW-3QHK8ZVMIN7Q5FROPMHII6USJ8NBL6.json,1,standard,FALSE
4830.720000005385,multi shaped thingy,NA,116199,10,G,11,unknown,13,/Users/dan/Projects/callab/tunkel/Negation2.0/raw_data/Experiment3/positionA/production-results/336OE47KI29I333Z8FAI49AO3MPVWW-3QHK8ZVMIN7Q5FROPMHII6USJ8NBL6.json,1,standard,FALSE
1240.57499999617,tree,NA,119545,11,15,J,known,13,/Users/dan/Projects/callab/tunkel/Negation2.0/raw_data/Experiment3/positionA/production-results/336OE47KI29I333Z8FAI49AO3MPVWW-3QHK8ZVMIN7Q5FROPMHII6USJ8NBL6.json,1,standard,FALSE
5396.454999994603,bunny ears lol,NA,127046,12,K,4,unknown,13,/Users/dan/Projects/callab/tunkel/Negation2.0/raw_data/Experiment3/positionA/production-results/336OE47KI29I333Z8FAI49AO3MPVWW-3QHK8ZVMIN7Q5FROPMHII6USJ8NBL6.json,1,standard,FALSE
1655.5049999951734,bunny ears,NA,129805,13,C,4,unknown,13,/Users/dan/Projects/callab/tunkel/Negation2.0/raw_data/Experiment3/positionA/production-results/336OE47KI29I333Z8FAI49AO3MPVWW-3QHK8ZVMIN7Q5FROPMHII6USJ8NBL6.json,2,standard,FALSE
1470.99999999773,bunny ears,NA,132380,14,I,4,unknown,13,/Users/dan/Projects/callab/tunkel/Negation2.0/raw_data/Experiment3/positionA/production-results/336OE47KI29I333Z8FAI49AO3MPVWW-3QHK8ZVMIN7Q5FROPMHII6USJ8NBL6.json,3,standard,FALSE
1246.3950000019395,flower,NA,134730,15,7,L,known,13,/Users/dan/Projects/callab/tunkel/Negation2.0/raw_data/Experiment3/positionA/production-results/336OE47KI29I333Z8FAI49AO3MPVWW-3QHK8ZVMIN7Q5FROPMHII6USJ8NBL6.json,1,switch,FALSE
3661.7850000038743,stick with the tube,NA,139496,16,N,9,unknown,13,/Users/dan/Projects/callab/tunkel/Negation2.0/raw_data/Experiment3/positionA/production-results/336OE47KI29I333Z8FAI49AO3MPVWW-3QHK8ZVMIN7Q5FROPMHII6USJ8NBL6.json,1,standard,FALSE
1151.5150000050198,dice,NA,143252,17,3,H,known,13,/Users/dan/Projects/callab/tunkel/Negation2.0/raw_data/Experiment3/positionA/production-results/336OE47KI29I333Z8FAI49AO3MPVWW-3QHK8ZVMIN7Q5FROPMHII6USJ8NBL6.json,1,standard,FALSE
1492.2050000022864,mug,NA,147348,18,4,M,known,13,/Users/dan/Projects/callab/tunkel/Negation2.0/raw_data/Experiment3/positionA/production-results/336OE47KI29I333Z8FAI49AO3MPVWW-3QHK8ZVMIN7Q5FROPMHII6USJ8NBL6.json,1,standard,FALSE
4285.840000025928,appple,NA,112235,3,4,A,known,14,/Users/dan/Projects/callab/tunkel/Negation2.0/raw_data/Experiment3/positionB/production-results/3OID399FXGWUY0HIR50OUZIH8CWDFI-3137ONMDKHU8QQP7OMMS6MV5QODGE4.json,1,standard,FALSE
7026.420000009239,not the chair,NA,122372,4,E,2,unknown,14,/Users/dan/Projects/callab/tunkel/Negation2.0/raw_data/Experiment3/positionB/production-results/3OID399FXGWUY0HIR50OUZIH8CWDFI-3137ONMDKHU8QQP7OMMS6MV5QODGE4.json,1,standard,TRUE
5264.810000022408,not the tree,NA,129251,5,J,2,unknown,14,/Users/dan/Projects/callab/tunkel/Negation2.0/raw_data/Experiment3/positionB/production-results/3OID399FXGWUY0HIR50OUZIH8CWDFI-3137ONMDKHU8QQP7OMMS6MV5QODGE4.json,2,standard,TRUE
4137.775000010151,not the die,NA,135005,6,H,2,unknown,14,/Users/dan/Projects/callab/tunkel/Negation2.0/raw_data/Experiment3/positionB/production-results/3OID399FXGWUY0HIR50OUZIH8CWDFI-3137ONMDKHU8QQP7OMMS6MV5QODGE4.json,3,standard,TRUE
3174.7050000121817,cat,NA,139790,7,9,B,known,14,/Users/dan/Projects/callab/tunkel/Negation2.0/raw_data/Experiment3/positionB/production-results/3OID399FXGWUY0HIR50OUZIH8CWDFI-3137ONMDKHU8QQP7OMMS6MV5QODGE4.json,1,switch,FALSE
4574.925000022631,not the mug,NA,145975,8,M,7,unknown,14,/Users/dan/Projects/callab/tunkel/Negation2.0/raw_data/Experiment3/positionB/production-results/3OID399FXGWUY0HIR50OUZIH8CWDFI-3137ONMDKHU8QQP7OMMS6MV5QODGE4.json,1,standard,TRUE
4765.064999985043,shoe,NA,152856,9,12,C,known,14,/Users/dan/Projects/callab/tunkel/Negation2.0/raw_data/Experiment3/positionB/production-results/3OID399FXGWUY0HIR50OUZIH8CWDFI-3137ONMDKHU8QQP7OMMS6MV5QODGE4.json,1,standard,FALSE
4505.264999985229,flower,NA,159970,10,2,L,known,14,/Users/dan/Projects/callab/tunkel/Negation2.0/raw_data/Experiment3/positionB/production-results/3OID399FXGWUY0HIR50OUZIH8CWDFI-3137ONMDKHU8QQP7OMMS6MV5QODGE4.json,1,standard,FALSE
5638.8349999906495,not the fork,NA,168730,11,G,11,unknown,14,/Users/dan/Projects/callab/tunkel/Negation2.0/raw_data/Experiment3/positionB/production-results/3OID399FXGWUY0HIR50OUZIH8CWDFI-3137ONMDKHU8QQP7OMMS6MV5QODGE4.json,1,standard,TRUE
5539.640000031795,butterfly,NA,175131,12,5,K,known,14,/Users/dan/Projects/callab/tunkel/Negation2.0/raw_data/Experiment3/positionB/production-results/3OID399FXGWUY0HIR50OUZIH8CWDFI-3137ONMDKHU8QQP7OMMS6MV5QODGE4.json,1,standard,FALSE
4442.73000000976,butterfly,NA,182688,13,3,K,known,14,/Users/dan/Projects/callab/tunkel/Negation2.0/raw_data/Experiment3/positionB/production-results/3OID399FXGWUY0HIR50OUZIH8CWDFI-3137ONMDKHU8QQP7OMMS6MV5QODGE4.json,2,standard,FALSE
3488.515000033658,butterfly,NA,188285,14,15,K,known,14,/Users/dan/Projects/callab/tunkel/Negation2.0/raw_data/Experiment3/positionB/production-results/3OID399FXGWUY0HIR50OUZIH8CWDFI-3137ONMDKHU8QQP7OMMS6MV5QODGE4.json,3,standard,FALSE
8767.010000010487,not the ring,NA,198416,15,F,16,unknown,14,/Users/dan/Projects/callab/tunkel/Negation2.0/raw_data/Experiment3/positionB/production-results/3OID399FXGWUY0HIR50OUZIH8CWDFI-3137ONMDKHU8QQP7OMMS6MV5QODGE4.json,1,switch,TRUE
3233.8050000253133,car,NA,202508,16,10,I,known,14,/Users/dan/Projects/callab/tunkel/Negation2.0/raw_data/Experiment3/positionB/production-results/3OID399FXGWUY0HIR50OUZIH8CWDFI-3137ONMDKHU8QQP7OMMS6MV5QODGE4.json,1,standard,FALSE
5228.919999965001,not the pen,NA,209597,17,D,1,unknown,14,/Users/dan/Projects/callab/tunkel/Negation2.0/raw_data/Experiment3/positionB/production-results/3OID399FXGWUY0HIR50OUZIH8CWDFI-3137ONMDKHU8QQP7OMMS6MV5QODGE4.json,1,standard,TRUE
7615.640000032727,not the butterfly,NA,218573,18,K,8,unknown,14,/Users/dan/Projects/callab/tunkel/Negation2.0/raw_data/Experiment3/positionB/production-results/3OID399FXGWUY0HIR50OUZIH8CWDFI-3137ONMDKHU8QQP7OMMS6MV5QODGE4.json,1,standard,TRUE
27366.99999999834,its a blob,NA,281557,3,K,11,unknown,15,/Users/dan/Projects/callab/tunkel/Negation2.0/raw_data/Experiment3/positionA/production-results/336OE47KI29I333Z8FAI49AO3MPVWW-3SITXWYCNWYL598D35K6T0PFQH1XBI.json,1,standard,FALSE
9411,apple,NA,293571,4,15,A,known,15,/Users/dan/Projects/callab/tunkel/Negation2.0/raw_data/Experiment3/positionA/production-results/336OE47KI29I333Z8FAI49AO3MPVWW-3SITXWYCNWYL598D35K6T0PFQH1XBI.json,1,standard,FALSE
15551.99999999965,an apple,NA,311230,5,6,A,known,15,/Users/dan/Projects/callab/tunkel/Negation2.0/raw_data/Experiment3/positionA/production-results/336OE47KI29I333Z8FAI49AO3MPVWW-3SITXWYCNWYL598D35K6T0PFQH1XBI.json,2,standard,FALSE
11852.999999999127,another apple,NA,325699,6,2,A,known,15,/Users/dan/Projects/callab/tunkel/Negation2.0/raw_data/Experiment3/positionA/production-results/336OE47KI29I333Z8FAI49AO3MPVWW-3SITXWYCNWYL598D35K6T0PFQH1XBI.json,3,standard,TRUE
61612.00000000099,it is abstract,NA,388918,7,L,4,unknown,15,/Users/dan/Projects/callab/tunkel/Negation2.0/raw_data/Experiment3/positionA/production-results/336OE47KI29I333Z8FAI49AO3MPVWW-3SITXWYCNWYL598D35K6T0PFQH1XBI.json,1,switch,FALSE
7563.999999998487,a tree,NA,398085,8,3,J,known,15,/Users/dan/Projects/callab/tunkel/Negation2.0/raw_data/Experiment3/positionA/production-results/336OE47KI29I333Z8FAI49AO3MPVWW-3SITXWYCNWYL598D35K6T0PFQH1XBI.json,1,standard,FALSE
8172.999999998894,a toy,NA,409374,9,F,1,unknown,15,/Users/dan/Projects/callab/tunkel/Negation2.0/raw_data/Experiment3/positionA/production-results/336OE47KI29I333Z8FAI49AO3MPVWW-3SITXWYCNWYL598D35K6T0PFQH1XBI.json,1,standard,FALSE
14594.000000000931,abstract item,NA,426099,10,A,8,unknown,15,/Users/dan/Projects/callab/tunkel/Negation2.0/raw_data/Experiment3/positionA/production-results/336OE47KI29I333Z8FAI49AO3MPVWW-3SITXWYCNWYL598D35K6T0PFQH1XBI.json,1,standard,FALSE
4890.999999999651,a pen,NA,433114,11,9,D,known,15,/Users/dan/Projects/callab/tunkel/Negation2.0/raw_data/Experiment3/positionA/production-results/336OE47KI29I333Z8FAI49AO3MPVWW-3SITXWYCNWYL598D35K6T0PFQH1XBI.json,1,standard,FALSE
11644.000000000233,an object,NA,447869,12,C,5,unknown,15,/Users/dan/Projects/callab/tunkel/Negation2.0/raw_data/Experiment3/positionA/production-results/336OE47KI29I333Z8FAI49AO3MPVWW-3SITXWYCNWYL598D35K6T0PFQH1XBI.json,1,standard,FALSE
15734.999999996973,a weird object,NA,466709,13,M,5,unknown,15,/Users/dan/Projects/callab/tunkel/Negation2.0/raw_data/Experiment3/positionA/production-results/336OE47KI29I333Z8FAI49AO3MPVWW-3SITXWYCNWYL598D35K6T0PFQH1XBI.json,2,standard,FALSE
12209.999999999127,what is it,NA,480523,14,E,5,unknown,15,/Users/dan/Projects/callab/tunkel/Negation2.0/raw_data/Experiment3/positionA/production-results/336OE47KI29I333Z8FAI49AO3MPVWW-3SITXWYCNWYL598D35K6T0PFQH1XBI.json,3,standard,FALSE
6282.999999999476,a fork,NA,487661,15,16,G,known,15,/Users/dan/Projects/callab/tunkel/Negation2.0/raw_data/Experiment3/positionA/production-results/336OE47KI29I333Z8FAI49AO3MPVWW-3SITXWYCNWYL598D35K6T0PFQH1XBI.json,1,switch,FALSE
9706.999999998487,a slipper,NA,498977,16,N,7,unknown,15,/Users/dan/Projects/callab/tunkel/Negation2.0/raw_data/Experiment3/positionA/production-results/336OE47KI29I333Z8FAI49AO3MPVWW-3SITXWYCNWYL598D35K6T0PFQH1XBI.json,1,standard,FALSE
6179.000000000058,a car,NA,506260,17,12,I,known,15,/Users/dan/Projects/callab/tunkel/Negation2.0/raw_data/Experiment3/positionA/production-results/336OE47KI29I333Z8FAI49AO3MPVWW-3SITXWYCNWYL598D35K6T0PFQH1XBI.json,1,standard,FALSE
10113.000000001222,dice,NA,517241,18,5,H,known,15,/Users/dan/Projects/callab/tunkel/Negation2.0/raw_data/Experiment3/positionA/production-results/336OE47KI29I333Z8FAI49AO3MPVWW-3SITXWYCNWYL598D35K6T0PFQH1XBI.json,1,standard,FALSE
1968.8599999935832,tree,NA,117050,3,2,J,known,16,/Users/dan/Projects/callab/tunkel/Negation2.0/raw_data/Experiment3/positionB/production-results/3OID399FXGWUY0HIR50OUZIH8CWDFI-3R0T90IZ1T1TTS5TSVGXGYV25C0GCB.json,1,standard,FALSE
3658.930000005057,not cat,NA,122322,4,B,7,unknown,16,/Users/dan/Projects/callab/tunkel/Negation2.0/raw_data/Experiment3/positionB/production-results/3OID399FXGWUY0HIR50OUZIH8CWDFI-3R0T90IZ1T1TTS5TSVGXGYV25C0GCB.json,1,standard,TRUE
3146.9900000083726,not fork,NA,127329,5,G,7,unknown,16,/Users/dan/Projects/callab/tunkel/Negation2.0/raw_data/Experiment3/positionB/production-results/3OID399FXGWUY0HIR50OUZIH8CWDFI-3R0T90IZ1T1TTS5TSVGXGYV25C0GCB.json,2,standard,TRUE
2460.044999985257,not flower,NA,130898,6,L,7,unknown,16,/Users/dan/Projects/callab/tunkel/Negation2.0/raw_data/Experiment3/positionB/production-results/3OID399FXGWUY0HIR50OUZIH8CWDFI-3R0T90IZ1T1TTS5TSVGXGYV25C0GCB.json,3,standard,TRUE
1609.5799999893643,chair,NA,134114,7,9,E,known,16,/Users/dan/Projects/callab/tunkel/Negation2.0/raw_data/Experiment3/positionB/production-results/3OID399FXGWUY0HIR50OUZIH8CWDFI-3R0T90IZ1T1TTS5TSVGXGYV25C0GCB.json,1,switch,FALSE
3872.6750000205357,not apple,NA,138842,8,A,5,unknown,16,/Users/dan/Projects/callab/tunkel/Negation2.0/raw_data/Experiment3/positionB/production-results/3OID399FXGWUY0HIR50OUZIH8CWDFI-3R0T90IZ1T1TTS5TSVGXGYV25C0GCB.json,1,standard,TRUE
1914.794999989681,car,NA,141865,9,6,I,known,16,/Users/dan/Projects/callab/tunkel/Negation2.0/raw_data/Experiment3/positionB/production-results/3OID399FXGWUY0HIR50OUZIH8CWDFI-3R0T90IZ1T1TTS5TSVGXGYV25C0GCB.json,1,standard,FALSE
2001.3699999835808,ring,NA,144722,10,7,F,known,16,/Users/dan/Projects/callab/tunkel/Negation2.0/raw_data/Experiment3/positionB/production-results/3OID399FXGWUY0HIR50OUZIH8CWDFI-3R0T90IZ1T1TTS5TSVGXGYV25C0GCB.json,1,standard,FALSE
2261.769999982789,blocks,NA,148345,11,H,15,unknown,16,/Users/dan/Projects/callab/tunkel/Negation2.0/raw_data/Experiment3/positionB/production-results/3OID399FXGWUY0HIR50OUZIH8CWDFI-3R0T90IZ1T1TTS5TSVGXGYV25C0GCB.json,1,standard,FALSE
2093.010000011418,shoe,NA,153545,12,10,C,known,16,/Users/dan/Projects/callab/tunkel/Negation2.0/raw_data/Experiment3/positionB/production-results/3OID399FXGWUY0HIR50OUZIH8CWDFI-3R0T90IZ1T1TTS5TSVGXGYV25C0GCB.json,1,standard,FALSE
1436.0100000048988,shoe,NA,155843,13,16,C,known,16,/Users/dan/Projects/callab/tunkel/Negation2.0/raw_data/Experiment3/positionB/production-results/3OID399FXGWUY0HIR50OUZIH8CWDFI-3R0T90IZ1T1TTS5TSVGXGYV25C0GCB.json,2,standard,FALSE
1572.2850000020117,shoe,NA,160521,14,3,C,known,16,/Users/dan/Projects/callab/tunkel/Negation2.0/raw_data/Experiment3/positionB/production-results/3OID399FXGWUY0HIR50OUZIH8CWDFI-3R0T90IZ1T1TTS5TSVGXGYV25C0GCB.json,3,standard,FALSE
3181.559999997262,not cup,NA,165810,15,M,12,unknown,16,/Users/dan/Projects/callab/tunkel/Negation2.0/raw_data/Experiment3/positionB/production-results/3OID399FXGWUY0HIR50OUZIH8CWDFI-3R0T90IZ1T1TTS5TSVGXGYV25C0GCB.json,1,switch,TRUE
1606.339999998454,pen,NA,169273,16,11,D,known,16,/Users/dan/Projects/callab/tunkel/Negation2.0/raw_data/Experiment3/positionB/production-results/3OID399FXGWUY0HIR50OUZIH8CWDFI-3R0T90IZ1T1TTS5TSVGXGYV25C0GCB.json,1,standard,FALSE
3501.315000001341,not butterfly,NA,175386,17,K,8,unknown,16,/Users/dan/Projects/callab/tunkel/Negation2.0/raw_data/Experiment3/positionB/production-results/3OID399FXGWUY0HIR50OUZIH8CWDFI-3R0T90IZ1T1TTS5TSVGXGYV25C0GCB.json,1,standard,TRUE
2234.8000000056345,not shoe,NA,178729,18,C,4,unknown,16,/Users/dan/Projects/callab/tunkel/Negation2.0/raw_data/Experiment3/positionB/production-results/3OID399FXGWUY0HIR50OUZIH8CWDFI-3R0T90IZ1T1TTS5TSVGXGYV25C0GCB.json,1,standard,TRUE
10499.654999992345,utility tool with holes,NA,94626,3,A,6,unknown,17,/Users/dan/Projects/callab/tunkel/Negation2.0/raw_data/Experiment3/positionA/production-results/336OE47KI29I333Z8FAI49AO3MPVWW-3GD6L00D3TM9YZRHN1P8C7W8X1M1MF.json,1,standard,FALSE
2215.444999979809,cat,NA,98696,4,7,B,known,17,/Users/dan/Projects/callab/tunkel/Negation2.0/raw_data/Experiment3/positionA/production-results/336OE47KI29I333Z8FAI49AO3MPVWW-3GD6L00D3TM9YZRHN1P8C7W8X1M1MF.json,1,standard,FALSE
2620.8800000022165,cat,NA,103422,5,8,B,known,17,/Users/dan/Projects/callab/tunkel/Negation2.0/raw_data/Experiment3/positionA/production-results/336OE47KI29I333Z8FAI49AO3MPVWW-3GD6L00D3TM9YZRHN1P8C7W8X1M1MF.json,2,standard,FALSE
2581.2950000399724,cat,NA,108609,6,11,B,known,17,/Users/dan/Projects/callab/tunkel/Negation2.0/raw_data/Experiment3/positionA/production-results/336OE47KI29I333Z8FAI49AO3MPVWW-3GD6L00D3TM9YZRHN1P8C7W8X1M1MF.json,3,standard,FALSE
9143.559999996796,doodad with 3 knobs,NA,118608,7,I,9,unknown,17,/Users/dan/Projects/callab/tunkel/Negation2.0/raw_data/Experiment3/positionA/production-results/336OE47KI29I333Z8FAI49AO3MPVWW-3GD6L00D3TM9YZRHN1P8C7W8X1M1MF.json,1,switch,FALSE
3425.4499999806285,dice,NA,123388,8,1,H,known,17,/Users/dan/Projects/callab/tunkel/Negation2.0/raw_data/Experiment3/positionA/production-results/336OE47KI29I333Z8FAI49AO3MPVWW-3GD6L00D3TM9YZRHN1P8C7W8X1M1MF.json,1,standard,FALSE
5954.879999975674,sculpture,NA,130698,9,L,3,unknown,17,/Users/dan/Projects/callab/tunkel/Negation2.0/raw_data/Experiment3/positionA/production-results/336OE47KI29I333Z8FAI49AO3MPVWW-3GD6L00D3TM9YZRHN1P8C7W8X1M1MF.json,1,standard,FALSE
7948.295000009239,toy top,NA,139500,10,B,12,unknown,17,/Users/dan/Projects/callab/tunkel/Negation2.0/raw_data/Experiment3/positionA/production-results/336OE47KI29I333Z8FAI49AO3MPVWW-3GD6L00D3TM9YZRHN1P8C7W8X1M1MF.json,1,standard,FALSE
4546.389999974053,pen,NA,144900,11,5,D,known,17,/Users/dan/Projects/callab/tunkel/Negation2.0/raw_data/Experiment3/positionA/production-results/336OE47KI29I333Z8FAI49AO3MPVWW-3GD6L00D3TM9YZRHN1P8C7W8X1M1MF.json,1,standard,FALSE
9942.48999998672,ring with 4 sticks coming out of it,NA,157446,12,G,4,unknown,17,/Users/dan/Projects/callab/tunkel/Negation2.0/raw_data/Experiment3/positionA/production-results/336OE47KI29I333Z8FAI49AO3MPVWW-3GD6L00D3TM9YZRHN1P8C7W8X1M1MF.json,1,standard,FALSE
4976.560000039171,ring with 4 sticks,NA,164028,13,N,4,unknown,17,/Users/dan/Projects/callab/tunkel/Negation2.0/raw_data/Experiment3/positionA/production-results/336OE47KI29I333Z8FAI49AO3MPVWW-3GD6L00D3TM9YZRHN1P8C7W8X1M1MF.json,2,standard,FALSE
4652.6750000193715,ring with 4 sticks,NA,170286,14,K,4,unknown,17,/Users/dan/Projects/callab/tunkel/Negation2.0/raw_data/Experiment3/positionA/production-results/336OE47KI29I333Z8FAI49AO3MPVWW-3GD6L00D3TM9YZRHN1P8C7W8X1M1MF.json,3,standard,FALSE
2950.205000001006,ring,NA,175840,15,16,F,known,17,/Users/dan/Projects/callab/tunkel/Negation2.0/raw_data/Experiment3/positionA/production-results/336OE47KI29I333Z8FAI49AO3MPVWW-3GD6L00D3TM9YZRHN1P8C7W8X1M1MF.json,1,switch,FALSE
6736.585000006016,bulb,NA,183432,16,M,10,unknown,17,/Users/dan/Projects/callab/tunkel/Negation2.0/raw_data/Experiment3/positionA/production-results/336OE47KI29I333Z8FAI49AO3MPVWW-3GD6L00D3TM9YZRHN1P8C7W8X1M1MF.json,1,standard,FALSE
2740.3949999716133,tree,NA,188777,17,15,J,known,17,/Users/dan/Projects/callab/tunkel/Negation2.0/raw_data/Experiment3/positionA/production-results/336OE47KI29I333Z8FAI49AO3MPVWW-3GD6L00D3TM9YZRHN1P8C7W8X1M1MF.json,1,standard,FALSE
4943.359999975655,chair,NA,195575,18,4,E,known,17,/Users/dan/Projects/callab/tunkel/Negation2.0/raw_data/Experiment3/positionA/production-results/336OE47KI29I333Z8FAI49AO3MPVWW-3GD6L00D3TM9YZRHN1P8C7W8X1M1MF.json,1,standard,FALSE
3630.1449999990873,apple,NA,869886,3,10,A,known,18,/Users/dan/Projects/callab/tunkel/Negation2.0/raw_data/Experiment3/positionB/production-results/3WGZLY9VCHBLJL7VJRUIK71VL8J8DW-3XC1O3LBOTBQ11L5P883I00EPFMLT5.json,1,standard,FALSE
5994.474999999511,white hat,NA,877484,4,N,3,unknown,18,/Users/dan/Projects/callab/tunkel/Negation2.0/raw_data/Experiment3/positionB/production-results/3WGZLY9VCHBLJL7VJRUIK71VL8J8DW-3XC1O3LBOTBQ11L5P883I00EPFMLT5.json,1,standard,FALSE
4302.425000001676,white hat,NA,883390,5,C,3,unknown,18,/Users/dan/Projects/callab/tunkel/Negation2.0/raw_data/Experiment3/positionB/production-results/3WGZLY9VCHBLJL7VJRUIK71VL8J8DW-3XC1O3LBOTBQ11L5P883I00EPFMLT5.json,2,standard,FALSE
4026.979999998817,white hat,NA,889270,6,J,3,unknown,18,/Users/dan/Projects/callab/tunkel/Negation2.0/raw_data/Experiment3/positionB/production-results/3WGZLY9VCHBLJL7VJRUIK71VL8J8DW-3XC1O3LBOTBQ11L5P883I00EPFMLT5.json,3,standard,FALSE
2813.7150000002002,chair,NA,893188,7,1,E,known,18,/Users/dan/Projects/callab/tunkel/Negation2.0/raw_data/Experiment3/positionB/production-results/3WGZLY9VCHBLJL7VJRUIK71VL8J8DW-3XC1O3LBOTBQ11L5P883I00EPFMLT5.json,1,switch,FALSE
4722.6149999988265,vase,NA,899514,8,F,2,unknown,18,/Users/dan/Projects/callab/tunkel/Negation2.0/raw_data/Experiment3/positionB/production-results/3WGZLY9VCHBLJL7VJRUIK71VL8J8DW-3XC1O3LBOTBQ11L5P883I00EPFMLT5.json,1,standard,FALSE
2775.4150000000373,fork,NA,905392,9,8,G,known,18,/Users/dan/Projects/callab/tunkel/Negation2.0/raw_data/Experiment3/positionB/production-results/3WGZLY9VCHBLJL7VJRUIK71VL8J8DW-3XC1O3LBOTBQ11L5P883I00EPFMLT5.json,1,standard,FALSE
2254.7899999989895,cup,NA,909750,10,3,M,known,18,/Users/dan/Projects/callab/tunkel/Negation2.0/raw_data/Experiment3/positionB/production-results/3WGZLY9VCHBLJL7VJRUIK71VL8J8DW-3XC1O3LBOTBQ11L5P883I00EPFMLT5.json,1,standard,FALSE
5194.190000001923,grenade,NA,917047,11,B,16,unknown,18,/Users/dan/Projects/callab/tunkel/Negation2.0/raw_data/Experiment3/positionB/production-results/3WGZLY9VCHBLJL7VJRUIK71VL8J8DW-3XC1O3LBOTBQ11L5P883I00EPFMLT5.json,1,standard,FALSE
2210.1750000000466,pen,NA,920360,12,5,D,known,18,/Users/dan/Projects/callab/tunkel/Negation2.0/raw_data/Experiment3/positionB/production-results/3WGZLY9VCHBLJL7VJRUIK71VL8J8DW-3XC1O3LBOTBQ11L5P883I00EPFMLT5.json,1,standard,FALSE
3315.85500000068,pen,NA,925279,13,15,D,known,18,/Users/dan/Projects/callab/tunkel/Negation2.0/raw_data/Experiment3/positionB/production-results/3WGZLY9VCHBLJL7VJRUIK71VL8J8DW-3XC1O3LBOTBQ11L5P883I00EPFMLT5.json,2,standard,FALSE
3485.129999997327,pen,NA,931867,14,12,D,known,18,/Users/dan/Projects/callab/tunkel/Negation2.0/raw_data/Experiment3/positionB/production-results/3WGZLY9VCHBLJL7VJRUIK71VL8J8DW-3XC1O3LBOTBQ11L5P883I00EPFMLT5.json,3,standard,FALSE
5268.640000001993,bottle,NA,938489,15,K,9,unknown,18,/Users/dan/Projects/callab/tunkel/Negation2.0/raw_data/Experiment3/positionB/production-results/3WGZLY9VCHBLJL7VJRUIK71VL8J8DW-3XC1O3LBOTBQ11L5P883I00EPFMLT5.json,1,switch,FALSE
2610.76999999932,daisy,NA,942453,16,6,L,known,18,/Users/dan/Projects/callab/tunkel/Negation2.0/raw_data/Experiment3/positionB/production-results/3WGZLY9VCHBLJL7VJRUIK71VL8J8DW-3XC1O3LBOTBQ11L5P883I00EPFMLT5.json,1,standard,FALSE
4576.610000000102,flaps,NA,948633,17,I,7,unknown,18,/Users/dan/Projects/callab/tunkel/Negation2.0/raw_data/Experiment3/positionB/production-results/3WGZLY9VCHBLJL7VJRUIK71VL8J8DW-3XC1O3LBOTBQ11L5P883I00EPFMLT5.json,1,standard,FALSE
6454.479999996722,rubix cube,NA,957692,18,D,11,unknown,18,/Users/dan/Projects/callab/tunkel/Negation2.0/raw_data/Experiment3/positionB/production-results/3WGZLY9VCHBLJL7VJRUIK71VL8J8DW-3XC1O3LBOTBQ11L5P883I00EPFMLT5.json,1,standard,FALSE
12091.944999992847,syringe,NA,151685,3,G,10,unknown,19,/Users/dan/Projects/callab/tunkel/Negation2.0/raw_data/Experiment3/positionA/production-results/336OE47KI29I333Z8FAI49AO3MPVWW-3C5W7UE9CGFHO0CAUUAF7G092G1XM3.json,1,standard,FALSE
5047.789999982342,dice,NA,159346,4,2,H,known,19,/Users/dan/Projects/callab/tunkel/Negation2.0/raw_data/Experiment3/positionA/production-results/336OE47KI29I333Z8FAI49AO3MPVWW-3C5W7UE9CGFHO0CAUUAF7G092G1XM3.json,1,standard,FALSE
5425.385000009555,dice,NA,166384,5,11,H,known,19,/Users/dan/Projects/callab/tunkel/Negation2.0/raw_data/Experiment3/positionA/production-results/336OE47KI29I333Z8FAI49AO3MPVWW-3C5W7UE9CGFHO0CAUUAF7G092G1XM3.json,2,standard,FALSE
5874.124999972992,dice,NA,173872,6,3,H,known,19,/Users/dan/Projects/callab/tunkel/Negation2.0/raw_data/Experiment3/positionA/production-results/336OE47KI29I333Z8FAI49AO3MPVWW-3C5W7UE9CGFHO0CAUUAF7G092G1XM3.json,3,standard,FALSE
15730.479999969248,toy,NA,190715,7,C,9,unknown,19,/Users/dan/Projects/callab/tunkel/Negation2.0/raw_data/Experiment3/positionA/production-results/336OE47KI29I333Z8FAI49AO3MPVWW-3C5W7UE9CGFHO0CAUUAF7G092G1XM3.json,1,switch,FALSE
4367.855000018608,mug,NA,197194,8,1,M,known,19,/Users/dan/Projects/callab/tunkel/Negation2.0/raw_data/Experiment3/positionA/production-results/336OE47KI29I333Z8FAI49AO3MPVWW-3C5W7UE9CGFHO0CAUUAF7G092G1XM3.json,1,standard,FALSE
8195.5200000084,art,NA,208502,9,J,5,unknown,19,/Users/dan/Projects/callab/tunkel/Negation2.0/raw_data/Experiment3/positionA/production-results/336OE47KI29I333Z8FAI49AO3MPVWW-3C5W7UE9CGFHO0CAUUAF7G092G1XM3.json,1,standard,FALSE
5258.1650000065565,art,NA,215121,10,H,8,unknown,19,/Users/dan/Projects/callab/tunkel/Negation2.0/raw_data/Experiment3/positionA/production-results/336OE47KI29I333Z8FAI49AO3MPVWW-3C5W7UE9CGFHO0CAUUAF7G092G1XM3.json,1,standard,FALSE
3677.0699999760836,car,NA,220409,11,12,I,known,19,/Users/dan/Projects/callab/tunkel/Negation2.0/raw_data/Experiment3/positionA/production-results/336OE47KI29I333Z8FAI49AO3MPVWW-3C5W7UE9CGFHO0CAUUAF7G092G1XM3.json,1,standard,FALSE
11628.184999979567,buckle,NA,233899,12,L,6,unknown,19,/Users/dan/Projects/callab/tunkel/Negation2.0/raw_data/Experiment3/positionA/production-results/336OE47KI29I333Z8FAI49AO3MPVWW-3C5W7UE9CGFHO0CAUUAF7G092G1XM3.json,1,standard,FALSE
7540.319999970961,buckle,NA,242552,13,N,6,unknown,19,/Users/dan/Projects/callab/tunkel/Negation2.0/raw_data/Experiment3/positionA/production-results/336OE47KI29I333Z8FAI49AO3MPVWW-3C5W7UE9CGFHO0CAUUAF7G092G1XM3.json,2,standard,FALSE
10876.64000003133,seat buckle,NA,255539,14,A,6,unknown,19,/Users/dan/Projects/callab/tunkel/Negation2.0/raw_data/Experiment3/positionA/production-results/336OE47KI29I333Z8FAI49AO3MPVWW-3C5W7UE9CGFHO0CAUUAF7G092G1XM3.json,3,standard,FALSE
5226.165000000037,ring,NA,263378,15,7,F,known,19,/Users/dan/Projects/callab/tunkel/Negation2.0/raw_data/Experiment3/positionA/production-results/336OE47KI29I333Z8FAI49AO3MPVWW-3C5W7UE9CGFHO0CAUUAF7G092G1XM3.json,1,switch,FALSE
9385.46999997925,puzzle,NA,275377,16,E,15,unknown,19,/Users/dan/Projects/callab/tunkel/Negation2.0/raw_data/Experiment3/positionA/production-results/336OE47KI29I333Z8FAI49AO3MPVWW-3C5W7UE9CGFHO0CAUUAF7G092G1XM3.json,1,standard,FALSE
3987.200000032317,cat,NA,281224,17,4,B,known,19,/Users/dan/Projects/callab/tunkel/Negation2.0/raw_data/Experiment3/positionA/production-results/336OE47KI29I333Z8FAI49AO3MPVWW-3C5W7UE9CGFHO0CAUUAF7G092G1XM3.json,1,standard,FALSE
4502.939999976661,pen,NA,288341,18,6,D,known,19,/Users/dan/Projects/callab/tunkel/Negation2.0/raw_data/Experiment3/positionA/production-results/336OE47KI29I333Z8FAI49AO3MPVWW-3C5W7UE9CGFHO0CAUUAF7G092G1XM3.json,1,standard,FALSE
18034.144999999786,ring,NA,2042267,3,3,F,known,20,/Users/dan/Projects/callab/tunkel/Negation2.0/raw_data/Experiment3/positionB/production-results/3VP28W7DUN9X11MEJNPLLR1KWU6FZJ-3KMS4QQVK3F5YQLM9ORDMW8Y96MFK1.json,1,standard,FALSE
58431.8899999999,A weird helmet thing,NA,2102812,4,M,8,unknown,20,/Users/dan/Projects/callab/tunkel/Negation2.0/raw_data/Experiment3/positionB/production-results/3VP28W7DUN9X11MEJNPLLR1KWU6FZJ-3KMS4QQVK3F5YQLM9ORDMW8Y96MFK1.json,1,standard,FALSE
18869.18499999959,A weird helmet thing again,NA,2123290,5,H,8,unknown,20,/Users/dan/Projects/callab/tunkel/Negation2.0/raw_data/Experiment3/positionB/production-results/3VP28W7DUN9X11MEJNPLLR1KWU6FZJ-3KMS4QQVK3F5YQLM9ORDMW8Y96MFK1.json,2,standard,FALSE
24155.510000000708,A weird helmet thing again for the third time,NA,2149056,6,E,8,unknown,20,/Users/dan/Projects/callab/tunkel/Negation2.0/raw_data/Experiment3/positionB/production-results/3VP28W7DUN9X11MEJNPLLR1KWU6FZJ-3KMS4QQVK3F5YQLM9ORDMW8Y96MFK1.json,3,standard,FALSE
5195.545000000391,Pen,NA,2156114,7,16,D,known,20,/Users/dan/Projects/callab/tunkel/Negation2.0/raw_data/Experiment3/positionB/production-results/3VP28W7DUN9X11MEJNPLLR1KWU6FZJ-3KMS4QQVK3F5YQLM9ORDMW8Y96MFK1.json,1,switch,FALSE
36381.325000000186,One of those spinning toys,NA,2193357,8,A,12,unknown,20,/Users/dan/Projects/callab/tunkel/Negation2.0/raw_data/Experiment3/positionB/production-results/3VP28W7DUN9X11MEJNPLLR1KWU6FZJ-3KMS4QQVK3F5YQLM9ORDMW8Y96MFK1.json,1,standard,FALSE
7342.355000000447,crab,NA,2202808,9,10,N,known,20,/Users/dan/Projects/callab/tunkel/Negation2.0/raw_data/Experiment3/positionB/production-results/3VP28W7DUN9X11MEJNPLLR1KWU6FZJ-3KMS4QQVK3F5YQLM9ORDMW8Y96MFK1.json,1,standard,FALSE
6897.994999999646,butterfly,NA,2211820,10,8,K,known,20,/Users/dan/Projects/callab/tunkel/Negation2.0/raw_data/Experiment3/positionB/production-results/3VP28W7DUN9X11MEJNPLLR1KWU6FZJ-3KMS4QQVK3F5YQLM9ORDMW8Y96MFK1.json,1,standard,FALSE
63362.80500000063,uhh its not furry nor does it have paws,NA,2276296,11,B,6,unknown,20,/Users/dan/Projects/callab/tunkel/Negation2.0/raw_data/Experiment3/positionB/production-results/3VP28W7DUN9X11MEJNPLLR1KWU6FZJ-3KMS4QQVK3F5YQLM9ORDMW8Y96MFK1.json,1,standard,TRUE
7506.850000000093,Vehicle,NA,2284920,12,11,I,known,20,/Users/dan/Projects/callab/tunkel/Negation2.0/raw_data/Experiment3/positionB/production-results/3VP28W7DUN9X11MEJNPLLR1KWU6FZJ-3KMS4QQVK3F5YQLM9ORDMW8Y96MFK1.json,1,standard,FALSE
10197.71999999974,another vehicle,NA,2296985,13,4,I,known,20,/Users/dan/Projects/callab/tunkel/Negation2.0/raw_data/Experiment3/positionB/production-results/3VP28W7DUN9X11MEJNPLLR1KWU6FZJ-3KMS4QQVK3F5YQLM9ORDMW8Y96MFK1.json,2,standard,TRUE
19167.985000000335,alright a vehicle once more,NA,2317515,14,2,I,known,20,/Users/dan/Projects/callab/tunkel/Negation2.0/raw_data/Experiment3/positionB/production-results/3VP28W7DUN9X11MEJNPLLR1KWU6FZJ-3KMS4QQVK3F5YQLM9ORDMW8Y96MFK1.json,3,standard,FALSE
47828.59499999927,two balls with non pointed spikes,NA,2366707,15,J,1,unknown,20,/Users/dan/Projects/callab/tunkel/Negation2.0/raw_data/Experiment3/positionB/production-results/3VP28W7DUN9X11MEJNPLLR1KWU6FZJ-3KMS4QQVK3F5YQLM9ORDMW8Y96MFK1.json,1,switch,FALSE
4923.160000000149,fork,NA,2373492,16,7,G,known,20,/Users/dan/Projects/callab/tunkel/Negation2.0/raw_data/Experiment3/positionB/production-results/3VP28W7DUN9X11MEJNPLLR1KWU6FZJ-3KMS4QQVK3F5YQLM9ORDMW8Y96MFK1.json,1,standard,FALSE
34641.924999999814,some type of toy im assuming,NA,2409245,17,L,9,unknown,20,/Users/dan/Projects/callab/tunkel/Negation2.0/raw_data/Experiment3/positionB/production-results/3VP28W7DUN9X11MEJNPLLR1KWU6FZJ-3KMS4QQVK3F5YQLM9ORDMW8Y96MFK1.json,1,standard,FALSE
31009.55499999877,A weird looking dumbbell,NA,2441871,18,I,5,unknown,20,/Users/dan/Projects/callab/tunkel/Negation2.0/raw_data/Experiment3/positionB/production-results/3VP28W7DUN9X11MEJNPLLR1KWU6FZJ-3KMS4QQVK3F5YQLM9ORDMW8Y96MFK1.json,1,standard,FALSE
4389.079999993555,art,NA,183222,3,E,11,unknown,21,/Users/dan/Projects/callab/tunkel/Negation2.0/raw_data/Experiment3/positionA/production-results/37J05LC5AX8A323EAVR99XA91JDDJL-3E13VNJ1NOKN2G1Q2MRGKEPRGS21IZ.json,1,standard,FALSE
3008.9249999728054,cat,NA,188842,4,1,B,known,21,/Users/dan/Projects/callab/tunkel/Negation2.0/raw_data/Experiment3/positionA/production-results/37J05LC5AX8A323EAVR99XA91JDDJL-3E13VNJ1NOKN2G1Q2MRGKEPRGS21IZ.json,1,standard,FALSE
12084.075000020675,cat,NA,202287,5,9,B,known,21,/Users/dan/Projects/callab/tunkel/Negation2.0/raw_data/Experiment3/positionA/production-results/37J05LC5AX8A323EAVR99XA91JDDJL-3E13VNJ1NOKN2G1Q2MRGKEPRGS21IZ.json,2,standard,FALSE
3886.800000036601,cat,NA,208280,6,12,B,known,21,/Users/dan/Projects/callab/tunkel/Negation2.0/raw_data/Experiment3/positionA/production-results/37J05LC5AX8A323EAVR99XA91JDDJL-3E13VNJ1NOKN2G1Q2MRGKEPRGS21IZ.json,3,standard,FALSE
2976.059999957215,art,NA,212119,7,G,7,unknown,21,/Users/dan/Projects/callab/tunkel/Negation2.0/raw_data/Experiment3/positionA/production-results/37J05LC5AX8A323EAVR99XA91JDDJL-3E13VNJ1NOKN2G1Q2MRGKEPRGS21IZ.json,1,switch,FALSE
2706.4099999843165,flower,NA,215932,8,8,L,known,21,/Users/dan/Projects/callab/tunkel/Negation2.0/raw_data/Experiment3/positionA/production-results/37J05LC5AX8A323EAVR99XA91JDDJL-3E13VNJ1NOKN2G1Q2MRGKEPRGS21IZ.json,1,standard,FALSE
7148.92000000691,plunger,NA,224441,9,A,10,unknown,21,/Users/dan/Projects/callab/tunkel/Negation2.0/raw_data/Experiment3/positionA/production-results/37J05LC5AX8A323EAVR99XA91JDDJL-3E13VNJ1NOKN2G1Q2MRGKEPRGS21IZ.json,1,standard,FALSE
2303.4500000067055,art,NA,228104,10,B,5,unknown,21,/Users/dan/Projects/callab/tunkel/Negation2.0/raw_data/Experiment3/positionA/production-results/37J05LC5AX8A323EAVR99XA91JDDJL-3E13VNJ1NOKN2G1Q2MRGKEPRGS21IZ.json,1,standard,FALSE
1789.9650000035763,tree,NA,232004,11,2,J,known,21,/Users/dan/Projects/callab/tunkel/Negation2.0/raw_data/Experiment3/positionA/production-results/37J05LC5AX8A323EAVR99XA91JDDJL-3E13VNJ1NOKN2G1Q2MRGKEPRGS21IZ.json,1,standard,FALSE
5072.374999988824,doughnut,NA,239694,12,F,4,unknown,21,/Users/dan/Projects/callab/tunkel/Negation2.0/raw_data/Experiment3/positionA/production-results/37J05LC5AX8A323EAVR99XA91JDDJL-3E13VNJ1NOKN2G1Q2MRGKEPRGS21IZ.json,1,standard,FALSE
2815.795000002254,doughbut,NA,245117,13,H,4,unknown,21,/Users/dan/Projects/callab/tunkel/Negation2.0/raw_data/Experiment3/positionA/production-results/37J05LC5AX8A323EAVR99XA91JDDJL-3E13VNJ1NOKN2G1Q2MRGKEPRGS21IZ.json,2,standard,FALSE
3912.6350000151433,doughnut,NA,250390,14,D,4,unknown,21,/Users/dan/Projects/callab/tunkel/Negation2.0/raw_data/Experiment3/positionA/production-results/37J05LC5AX8A323EAVR99XA91JDDJL-3E13VNJ1NOKN2G1Q2MRGKEPRGS21IZ.json,3,standard,FALSE
2364.194999972824,crab,NA,255360,15,3,N,known,21,/Users/dan/Projects/callab/tunkel/Negation2.0/raw_data/Experiment3/positionA/production-results/37J05LC5AX8A323EAVR99XA91JDDJL-3E13VNJ1NOKN2G1Q2MRGKEPRGS21IZ.json,1,switch,FALSE
6827.800000028219,fan,NA,263780,16,M,6,unknown,21,/Users/dan/Projects/callab/tunkel/Negation2.0/raw_data/Experiment3/positionA/production-results/37J05LC5AX8A323EAVR99XA91JDDJL-3E13VNJ1NOKN2G1Q2MRGKEPRGS21IZ.json,1,standard,FALSE
3330.7700000004843,shoe,NA,268470,17,16,C,known,21,/Users/dan/Projects/callab/tunkel/Negation2.0/raw_data/Experiment3/positionA/production-results/37J05LC5AX8A323EAVR99XA91JDDJL-3E13VNJ1NOKN2G1Q2MRGKEPRGS21IZ.json,1,standard,FALSE
2150.199999974575,car,NA,272229,18,4,I,known,21,/Users/dan/Projects/callab/tunkel/Negation2.0/raw_data/Experiment3/positionA/production-results/37J05LC5AX8A323EAVR99XA91JDDJL-3E13VNJ1NOKN2G1Q2MRGKEPRGS21IZ.json,1,standard,FALSE
6169.070000003558,ring,NA,107423,3,6,F,known,22,/Users/dan/Projects/callab/tunkel/Negation2.0/raw_data/Experiment3/positionB/production-results/3WGZLY9VCHBLJL7VJRUIK71VL8J8DW-3ZOTGHDK5J0XSMBND0J50C8MI1ESO5.json,1,standard,FALSE
5399.810000002617,not flower,NA,113928,4,L,3,unknown,22,/Users/dan/Projects/callab/tunkel/Negation2.0/raw_data/Experiment3/positionB/production-results/3WGZLY9VCHBLJL7VJRUIK71VL8J8DW-3ZOTGHDK5J0XSMBND0J50C8MI1ESO5.json,1,standard,TRUE
3013.439999995171,not cat,NA,119548,5,B,3,unknown,22,/Users/dan/Projects/callab/tunkel/Negation2.0/raw_data/Experiment3/positionB/production-results/3WGZLY9VCHBLJL7VJRUIK71VL8J8DW-3ZOTGHDK5J0XSMBND0J50C8MI1ESO5.json,2,standard,TRUE
8110.0250000017695,not crab,NA,130263,6,N,3,unknown,22,/Users/dan/Projects/callab/tunkel/Negation2.0/raw_data/Experiment3/positionB/production-results/3WGZLY9VCHBLJL7VJRUIK71VL8J8DW-3ZOTGHDK5J0XSMBND0J50C8MI1ESO5.json,3,standard,TRUE
2587.889999995241,dice,NA,133956,7,4,H,known,22,/Users/dan/Projects/callab/tunkel/Negation2.0/raw_data/Experiment3/positionB/production-results/3WGZLY9VCHBLJL7VJRUIK71VL8J8DW-3ZOTGHDK5J0XSMBND0J50C8MI1ESO5.json,1,switch,FALSE
4065.8450000046287,blocks,NA,138875,8,A,15,unknown,22,/Users/dan/Projects/callab/tunkel/Negation2.0/raw_data/Experiment3/positionB/production-results/3WGZLY9VCHBLJL7VJRUIK71VL8J8DW-3ZOTGHDK5J0XSMBND0J50C8MI1ESO5.json,1,standard,FALSE
2382.949999999255,shoe,NA,142363,9,2,C,known,22,/Users/dan/Projects/callab/tunkel/Negation2.0/raw_data/Experiment3/positionB/production-results/3WGZLY9VCHBLJL7VJRUIK71VL8J8DW-3ZOTGHDK5J0XSMBND0J50C8MI1ESO5.json,1,standard,FALSE
1896.3650000077905,fork,NA,145364,10,3,G,known,22,/Users/dan/Projects/callab/tunkel/Negation2.0/raw_data/Experiment3/positionB/production-results/3WGZLY9VCHBLJL7VJRUIK71VL8J8DW-3ZOTGHDK5J0XSMBND0J50C8MI1ESO5.json,1,standard,FALSE
5206.3449999986915,balls,NA,151424,11,D,1,unknown,22,/Users/dan/Projects/callab/tunkel/Negation2.0/raw_data/Experiment3/positionB/production-results/3WGZLY9VCHBLJL7VJRUIK71VL8J8DW-3ZOTGHDK5J0XSMBND0J50C8MI1ESO5.json,1,standard,FALSE
1440.260000003036,cup,NA,153728,12,11,M,known,22,/Users/dan/Projects/callab/tunkel/Negation2.0/raw_data/Experiment3/positionB/production-results/3WGZLY9VCHBLJL7VJRUIK71VL8J8DW-3ZOTGHDK5J0XSMBND0J50C8MI1ESO5.json,1,standard,FALSE
1678.910000002361,cup,NA,156762,13,16,M,known,22,/Users/dan/Projects/callab/tunkel/Negation2.0/raw_data/Experiment3/positionB/production-results/3WGZLY9VCHBLJL7VJRUIK71VL8J8DW-3ZOTGHDK5J0XSMBND0J50C8MI1ESO5.json,2,standard,FALSE
1853.0599999940023,cup,NA,161719,14,12,M,known,22,/Users/dan/Projects/callab/tunkel/Negation2.0/raw_data/Experiment3/positionB/production-results/3WGZLY9VCHBLJL7VJRUIK71VL8J8DW-3ZOTGHDK5J0XSMBND0J50C8MI1ESO5.json,3,standard,FALSE
4555.240000001504,not tree,NA,168380,15,J,5,unknown,22,/Users/dan/Projects/callab/tunkel/Negation2.0/raw_data/Experiment3/positionB/production-results/3WGZLY9VCHBLJL7VJRUIK71VL8J8DW-3ZOTGHDK5J0XSMBND0J50C8MI1ESO5.json,1,switch,TRUE
4083.6549999949057,butterfly,NA,174570,16,8,K,known,22,/Users/dan/Projects/callab/tunkel/Negation2.0/raw_data/Experiment3/positionB/production-results/3WGZLY9VCHBLJL7VJRUIK71VL8J8DW-3ZOTGHDK5J0XSMBND0J50C8MI1ESO5.json,1,standard,FALSE
4224.654999998165,not chair,NA,181900,17,E,7,unknown,22,/Users/dan/Projects/callab/tunkel/Negation2.0/raw_data/Experiment3/positionB/production-results/3WGZLY9VCHBLJL7VJRUIK71VL8J8DW-3ZOTGHDK5J0XSMBND0J50C8MI1ESO5.json,1,standard,TRUE
3525.450000001001,not cup,NA,188030,18,M,9,unknown,22,/Users/dan/Projects/callab/tunkel/Negation2.0/raw_data/Experiment3/positionB/production-results/3WGZLY9VCHBLJL7VJRUIK71VL8J8DW-3ZOTGHDK5J0XSMBND0J50C8MI1ESO5.json,1,standard,TRUE
10499.104999998992,not car,NA,300483,3,I,7,unknown,23,/Users/dan/Projects/callab/tunkel/Negation2.0/raw_data/Experiment3/positionA/production-results/37J05LC5AX8A323EAVR99XA91JDDJL-35L9RVQFCP73FIH4YSJFV4T9RCKUHY.json,1,standard,TRUE
5472.034999998868,butterfly,NA,308561,4,3,K,known,23,/Users/dan/Projects/callab/tunkel/Negation2.0/raw_data/Experiment3/positionA/production-results/37J05LC5AX8A323EAVR99XA91JDDJL-35L9RVQFCP73FIH4YSJFV4T9RCKUHY.json,1,standard,FALSE
7471.660000002827,butterfly,NA,316889,5,9,K,known,23,/Users/dan/Projects/callab/tunkel/Negation2.0/raw_data/Experiment3/positionA/production-results/37J05LC5AX8A323EAVR99XA91JDDJL-35L9RVQFCP73FIH4YSJFV4T9RCKUHY.json,2,standard,FALSE
6571.974999998929,butterfly,NA,324817,6,12,K,known,23,/Users/dan/Projects/callab/tunkel/Negation2.0/raw_data/Experiment3/positionA/production-results/37J05LC5AX8A323EAVR99XA91JDDJL-35L9RVQFCP73FIH4YSJFV4T9RCKUHY.json,3,standard,FALSE
7749.700000000303,not ring,NA,334673,7,F,5,unknown,23,/Users/dan/Projects/callab/tunkel/Negation2.0/raw_data/Experiment3/positionA/production-results/37J05LC5AX8A323EAVR99XA91JDDJL-35L9RVQFCP73FIH4YSJFV4T9RCKUHY.json,1,switch,TRUE
3818.619999998249,cat,NA,341097,8,10,B,known,23,/Users/dan/Projects/callab/tunkel/Negation2.0/raw_data/Experiment3/positionA/production-results/37J05LC5AX8A323EAVR99XA91JDDJL-35L9RVQFCP73FIH4YSJFV4T9RCKUHY.json,1,standard,FALSE
9981.784999999974,weird object,NA,354187,9,D,6,unknown,23,/Users/dan/Projects/callab/tunkel/Negation2.0/raw_data/Experiment3/positionA/production-results/37J05LC5AX8A323EAVR99XA91JDDJL-35L9RVQFCP73FIH4YSJFV4T9RCKUHY.json,1,standard,FALSE
7881.245000000461,blimp,NA,363424,10,K,16,unknown,23,/Users/dan/Projects/callab/tunkel/Negation2.0/raw_data/Experiment3/positionA/production-results/37J05LC5AX8A323EAVR99XA91JDDJL-35L9RVQFCP73FIH4YSJFV4T9RCKUHY.json,1,standard,FALSE
5807.080000002286,flower,NA,372337,11,15,L,known,23,/Users/dan/Projects/callab/tunkel/Negation2.0/raw_data/Experiment3/positionA/production-results/37J05LC5AX8A323EAVR99XA91JDDJL-35L9RVQFCP73FIH4YSJFV4T9RCKUHY.json,1,standard,FALSE
9877.039999999455,vase,NA,383321,12,N,2,unknown,23,/Users/dan/Projects/callab/tunkel/Negation2.0/raw_data/Experiment3/positionA/production-results/37J05LC5AX8A323EAVR99XA91JDDJL-35L9RVQFCP73FIH4YSJFV4T9RCKUHY.json,1,standard,FALSE
4439.080000000133,vase,NA,388617,13,H,2,unknown,23,/Users/dan/Projects/callab/tunkel/Negation2.0/raw_data/Experiment3/positionA/production-results/37J05LC5AX8A323EAVR99XA91JDDJL-35L9RVQFCP73FIH4YSJFV4T9RCKUHY.json,2,standard,FALSE
3756.505000001169,vase,NA,394480,14,C,2,unknown,23,/Users/dan/Projects/callab/tunkel/Negation2.0/raw_data/Experiment3/positionA/production-results/37J05LC5AX8A323EAVR99XA91JDDJL-35L9RVQFCP73FIH4YSJFV4T9RCKUHY.json,3,standard,FALSE
4705.789999999921,apple,NA,400793,15,4,A,known,23,/Users/dan/Projects/callab/tunkel/Negation2.0/raw_data/Experiment3/positionA/production-results/37J05LC5AX8A323EAVR99XA91JDDJL-35L9RVQFCP73FIH4YSJFV4T9RCKUHY.json,1,switch,FALSE
6747.319999998552,bumpy,NA,408896,16,J,1,unknown,23,/Users/dan/Projects/callab/tunkel/Negation2.0/raw_data/Experiment3/positionA/production-results/37J05LC5AX8A323EAVR99XA91JDDJL-35L9RVQFCP73FIH4YSJFV4T9RCKUHY.json,1,standard,FALSE
4685.695000000123,cup,NA,415688,17,8,M,known,23,/Users/dan/Projects/callab/tunkel/Negation2.0/raw_data/Experiment3/positionA/production-results/37J05LC5AX8A323EAVR99XA91JDDJL-35L9RVQFCP73FIH4YSJFV4T9RCKUHY.json,1,standard,FALSE
6413.1650000017835,fork,NA,423208,18,2,G,known,23,/Users/dan/Projects/callab/tunkel/Negation2.0/raw_data/Experiment3/positionA/production-results/37J05LC5AX8A323EAVR99XA91JDDJL-35L9RVQFCP73FIH4YSJFV4T9RCKUHY.json,1,standard,FALSE
12700.614999979734,tastes good with butter,NA,130006,3,16,N,known,24,/Users/dan/Projects/callab/tunkel/Negation2.0/raw_data/Experiment3/positionB/production-results/3OID399FXGWUY0HIR50OUZIH8CWDFI-3TEM0PF1Q6M6NG0MEPM5FCQ4JVO0DT.json,1,standard,FALSE
9719.845000188798,toy,NA,140581,4,J,11,unknown,24,/Users/dan/Projects/callab/tunkel/Negation2.0/raw_data/Experiment3/positionB/production-results/3OID399FXGWUY0HIR50OUZIH8CWDFI-3TEM0PF1Q6M6NG0MEPM5FCQ4JVO0DT.json,1,standard,FALSE
10054.715000092983,same toy,NA,153741,5,E,11,unknown,24,/Users/dan/Projects/callab/tunkel/Negation2.0/raw_data/Experiment3/positionB/production-results/3OID399FXGWUY0HIR50OUZIH8CWDFI-3TEM0PF1Q6M6NG0MEPM5FCQ4JVO0DT.json,2,standard,FALSE
16236.169999931008,same toy again like a poor kids christmas,NA,171333,6,G,11,unknown,24,/Users/dan/Projects/callab/tunkel/Negation2.0/raw_data/Experiment3/positionB/production-results/3OID399FXGWUY0HIR50OUZIH8CWDFI-3TEM0PF1Q6M6NG0MEPM5FCQ4JVO0DT.json,3,standard,FALSE
8696.294999681413,to drink milk out of,NA,181885,7,8,M,known,24,/Users/dan/Projects/callab/tunkel/Negation2.0/raw_data/Experiment3/positionB/production-results/3OID399FXGWUY0HIR50OUZIH8CWDFI-3TEM0PF1Q6M6NG0MEPM5FCQ4JVO0DT.json,1,switch,FALSE
16335.849999915808,no idea what it is but it doesnt meow,NA,201325,8,B,4,unknown,24,/Users/dan/Projects/callab/tunkel/Negation2.0/raw_data/Experiment3/positionB/production-results/3OID399FXGWUY0HIR50OUZIH8CWDFI-3TEM0PF1Q6M6NG0MEPM5FCQ4JVO0DT.json,1,standard,FALSE
5326.669999863952,gambling,NA,208757,9,9,H,known,24,/Users/dan/Projects/callab/tunkel/Negation2.0/raw_data/Experiment3/positionB/production-results/3OID399FXGWUY0HIR50OUZIH8CWDFI-3TEM0PF1Q6M6NG0MEPM5FCQ4JVO0DT.json,1,standard,FALSE
7389.835000038147,spread your wings,NA,219253,10,11,K,known,24,/Users/dan/Projects/callab/tunkel/Negation2.0/raw_data/Experiment3/positionB/production-results/3OID399FXGWUY0HIR50OUZIH8CWDFI-3TEM0PF1Q6M6NG0MEPM5FCQ4JVO0DT.json,1,standard,FALSE
10786.530000157654,better toy than before,NA,231144,11,L,1,unknown,24,/Users/dan/Projects/callab/tunkel/Negation2.0/raw_data/Experiment3/positionB/production-results/3OID399FXGWUY0HIR50OUZIH8CWDFI-3TEM0PF1Q6M6NG0MEPM5FCQ4JVO0DT.json,1,standard,FALSE
13839.96000001207,single moms wet dream,NA,246589,12,6,I,known,24,/Users/dan/Projects/callab/tunkel/Negation2.0/raw_data/Experiment3/positionB/production-results/3OID399FXGWUY0HIR50OUZIH8CWDFI-3TEM0PF1Q6M6NG0MEPM5FCQ4JVO0DT.json,1,standard,FALSE
6634.675000328571,vroom vroom,NA,254613,13,12,I,known,24,/Users/dan/Projects/callab/tunkel/Negation2.0/raw_data/Experiment3/positionB/production-results/3OID399FXGWUY0HIR50OUZIH8CWDFI-3TEM0PF1Q6M6NG0MEPM5FCQ4JVO0DT.json,2,standard,FALSE
8626.360000111163,number one killer of teens,NA,264101,14,3,I,known,24,/Users/dan/Projects/callab/tunkel/Negation2.0/raw_data/Experiment3/positionB/production-results/3OID399FXGWUY0HIR50OUZIH8CWDFI-3TEM0PF1Q6M6NG0MEPM5FCQ4JVO0DT.json,3,standard,FALSE
8564.890000037849,toy blocks,NA,274021,15,C,15,unknown,24,/Users/dan/Projects/callab/tunkel/Negation2.0/raw_data/Experiment3/positionB/production-results/3OID399FXGWUY0HIR50OUZIH8CWDFI-3TEM0PF1Q6M6NG0MEPM5FCQ4JVO0DT.json,1,switch,FALSE
4208.850000053644,marry me,NA,279085,16,5,F,known,24,/Users/dan/Projects/callab/tunkel/Negation2.0/raw_data/Experiment3/positionB/production-results/3OID399FXGWUY0HIR50OUZIH8CWDFI-3TEM0PF1Q6M6NG0MEPM5FCQ4JVO0DT.json,1,standard,FALSE
10485.404999926686,bro what is this,NA,290925,17,A,7,unknown,24,/Users/dan/Projects/callab/tunkel/Negation2.0/raw_data/Experiment3/positionB/production-results/3OID399FXGWUY0HIR50OUZIH8CWDFI-3TEM0PF1Q6M6NG0MEPM5FCQ4JVO0DT.json,1,standard,FALSE
12813.730000052601,half of some kind of plunger maybe,NA,305093,18,I,10,unknown,24,/Users/dan/Projects/callab/tunkel/Negation2.0/raw_data/Experiment3/positionB/production-results/3OID399FXGWUY0HIR50OUZIH8CWDFI-3TEM0PF1Q6M6NG0MEPM5FCQ4JVO0DT.json,1,standard,FALSE
1455.1250000076834,chair,NA,81537,3,9,E,known,25,/Users/dan/Projects/callab/tunkel/Negation2.0/raw_data/Experiment3/positionB/production-results/3OID399FXGWUY0HIR50OUZIH8CWDFI-3A7Y0R2P2PDRNS6PRXXNRO8SYM5XJY.json,1,standard,FALSE
8272.174999990966,squiggly row row blocks,NA,91672,4,N,15,unknown,25,/Users/dan/Projects/callab/tunkel/Negation2.0/raw_data/Experiment3/positionB/production-results/3OID399FXGWUY0HIR50OUZIH8CWDFI-3A7Y0R2P2PDRNS6PRXXNRO8SYM5XJY.json,1,standard,FALSE
17329.66000001761,multicolored snake looking thing,NA,110620,5,G,15,unknown,25,/Users/dan/Projects/callab/tunkel/Negation2.0/raw_data/Experiment3/positionB/production-results/3OID399FXGWUY0HIR50OUZIH8CWDFI-3A7Y0R2P2PDRNS6PRXXNRO8SYM5XJY.json,2,standard,FALSE
14454.505000001518,zig zag shape,NA,128188,6,D,15,unknown,25,/Users/dan/Projects/callab/tunkel/Negation2.0/raw_data/Experiment3/positionB/production-results/3OID399FXGWUY0HIR50OUZIH8CWDFI-3A7Y0R2P2PDRNS6PRXXNRO8SYM5XJY.json,3,standard,FALSE
2757.4150000000373,cup,NA,132305,7,2,M,known,25,/Users/dan/Projects/callab/tunkel/Negation2.0/raw_data/Experiment3/positionB/production-results/3OID399FXGWUY0HIR50OUZIH8CWDFI-3A7Y0R2P2PDRNS6PRXXNRO8SYM5XJY.json,1,switch,FALSE
7274.315000016941,two balls with suction cups,NA,141448,8,H,1,unknown,25,/Users/dan/Projects/callab/tunkel/Negation2.0/raw_data/Experiment3/positionB/production-results/3OID399FXGWUY0HIR50OUZIH8CWDFI-3A7Y0R2P2PDRNS6PRXXNRO8SYM5XJY.json,1,standard,FALSE
2315.820000017993,shoe,NA,144872,9,16,C,known,25,/Users/dan/Projects/callab/tunkel/Negation2.0/raw_data/Experiment3/positionB/production-results/3OID399FXGWUY0HIR50OUZIH8CWDFI-3A7Y0R2P2PDRNS6PRXXNRO8SYM5XJY.json,1,standard,FALSE
2290.435000002617,butterfly,NA,148525,10,15,K,known,25,/Users/dan/Projects/callab/tunkel/Negation2.0/raw_data/Experiment3/positionB/production-results/3OID399FXGWUY0HIR50OUZIH8CWDFI-3A7Y0R2P2PDRNS6PRXXNRO8SYM5XJY.json,1,standard,FALSE
9726.734999974724,white thing with 4pints,NA,161364,11,J,3,unknown,25,/Users/dan/Projects/callab/tunkel/Negation2.0/raw_data/Experiment3/positionB/production-results/3OID399FXGWUY0HIR50OUZIH8CWDFI-3A7Y0R2P2PDRNS6PRXXNRO8SYM5XJY.json,1,standard,FALSE
2897.945000004256,sunflower,NA,167379,12,6,L,known,25,/Users/dan/Projects/callab/tunkel/Negation2.0/raw_data/Experiment3/positionB/production-results/3OID399FXGWUY0HIR50OUZIH8CWDFI-3A7Y0R2P2PDRNS6PRXXNRO8SYM5XJY.json,1,standard,FALSE
5320.2150000142865,flower,NA,173819,13,4,L,known,25,/Users/dan/Projects/callab/tunkel/Negation2.0/raw_data/Experiment3/positionB/production-results/3OID399FXGWUY0HIR50OUZIH8CWDFI-3A7Y0R2P2PDRNS6PRXXNRO8SYM5XJY.json,2,standard,FALSE
7713.34499999648,plant,NA,183646,14,8,L,known,25,/Users/dan/Projects/callab/tunkel/Negation2.0/raw_data/Experiment3/positionB/production-results/3OID399FXGWUY0HIR50OUZIH8CWDFI-3A7Y0R2P2PDRNS6PRXXNRO8SYM5XJY.json,3,standard,FALSE
22412.509999994654,object that is flat on the ends and curled up in the middle,NA,208173,15,A,7,unknown,25,/Users/dan/Projects/callab/tunkel/Negation2.0/raw_data/Experiment3/positionB/production-results/3OID399FXGWUY0HIR50OUZIH8CWDFI-3A7Y0R2P2PDRNS6PRXXNRO8SYM5XJY.json,1,switch,FALSE
1650.4149999818765,car,NA,212938,16,12,I,known,25,/Users/dan/Projects/callab/tunkel/Negation2.0/raw_data/Experiment3/positionB/production-results/3OID399FXGWUY0HIR50OUZIH8CWDFI-3A7Y0R2P2PDRNS6PRXXNRO8SYM5XJY.json,1,standard,FALSE
8125.7299999997485,shape with multiple sides,NA,221932,17,F,11,unknown,25,/Users/dan/Projects/callab/tunkel/Negation2.0/raw_data/Experiment3/positionB/production-results/3OID399FXGWUY0HIR50OUZIH8CWDFI-3A7Y0R2P2PDRNS6PRXXNRO8SYM5XJY.json,1,standard,FALSE
7082.91499997722,looks like a turkey baster,NA,230129,18,L,10,unknown,25,/Users/dan/Projects/callab/tunkel/Negation2.0/raw_data/Experiment3/positionB/production-results/3OID399FXGWUY0HIR50OUZIH8CWDFI-3A7Y0R2P2PDRNS6PRXXNRO8SYM5XJY.json,1,standard,FALSE
16618.999999998836,earphone,NA,276837,3,E,9,unknown,26,/Users/dan/Projects/callab/tunkel/Negation2.0/raw_data/Experiment3/positionA/production-results/336OE47KI29I333Z8FAI49AO3MPVWW-308XBLVESJT18DM1U6EE4I3RP0CBRW.json,1,standard,FALSE
39466.999999996915,fork,NA,317666,4,5,G,known,26,/Users/dan/Projects/callab/tunkel/Negation2.0/raw_data/Experiment3/positionA/production-results/336OE47KI29I333Z8FAI49AO3MPVWW-308XBLVESJT18DM1U6EE4I3RP0CBRW.json,1,standard,FALSE
5968.0000000006985,fork,NA,324996,5,11,G,known,26,/Users/dan/Projects/callab/tunkel/Negation2.0/raw_data/Experiment3/positionA/production-results/336OE47KI29I333Z8FAI49AO3MPVWW-308XBLVESJT18DM1U6EE4I3RP0CBRW.json,2,standard,FALSE
6703.000000001339,fork,NA,332557,6,15,G,known,26,/Users/dan/Projects/callab/tunkel/Negation2.0/raw_data/Experiment3/positionA/production-results/336OE47KI29I333Z8FAI49AO3MPVWW-308XBLVESJT18DM1U6EE4I3RP0CBRW.json,3,standard,FALSE
15654.000000002212,bad,NA,349572,7,B,7,unknown,26,/Users/dan/Projects/callab/tunkel/Negation2.0/raw_data/Experiment3/positionA/production-results/336OE47KI29I333Z8FAI49AO3MPVWW-308XBLVESJT18DM1U6EE4I3RP0CBRW.json,1,switch,FALSE
4184.000000001048,bad,NA,356371,8,2,M,known,26,/Users/dan/Projects/callab/tunkel/Negation2.0/raw_data/Experiment3/positionA/production-results/336OE47KI29I333Z8FAI49AO3MPVWW-308XBLVESJT18DM1U6EE4I3RP0CBRW.json,1,standard,FALSE
23687.000000001688,reptile,NA,380925,9,J,10,unknown,26,/Users/dan/Projects/callab/tunkel/Negation2.0/raw_data/Experiment3/positionA/production-results/336OE47KI29I333Z8FAI49AO3MPVWW-308XBLVESJT18DM1U6EE4I3RP0CBRW.json,1,standard,FALSE
26213.999999999884,saw,NA,408996,10,G,1,unknown,26,/Users/dan/Projects/callab/tunkel/Negation2.0/raw_data/Experiment3/positionA/production-results/336OE47KI29I333Z8FAI49AO3MPVWW-308XBLVESJT18DM1U6EE4I3RP0CBRW.json,1,standard,FALSE
40335.9999999993,shoe,NA,450444,11,16,C,known,26,/Users/dan/Projects/callab/tunkel/Negation2.0/raw_data/Experiment3/positionA/production-results/336OE47KI29I333Z8FAI49AO3MPVWW-308XBLVESJT18DM1U6EE4I3RP0CBRW.json,1,standard,FALSE
70545.99999999849,monochrome,NA,521850,12,K,8,unknown,26,/Users/dan/Projects/callab/tunkel/Negation2.0/raw_data/Experiment3/positionA/production-results/336OE47KI29I333Z8FAI49AO3MPVWW-308XBLVESJT18DM1U6EE4I3RP0CBRW.json,1,standard,FALSE
10247.999999999534,monochrome,NA,532962,13,L,8,unknown,26,/Users/dan/Projects/callab/tunkel/Negation2.0/raw_data/Experiment3/positionA/production-results/336OE47KI29I333Z8FAI49AO3MPVWW-308XBLVESJT18DM1U6EE4I3RP0CBRW.json,2,standard,FALSE
12193.999999999418,monochrome,NA,547268,14,N,8,unknown,26,/Users/dan/Projects/callab/tunkel/Negation2.0/raw_data/Experiment3/positionA/production-results/336OE47KI29I333Z8FAI49AO3MPVWW-308XBLVESJT18DM1U6EE4I3RP0CBRW.json,3,standard,FALSE
5241.99999999837,apple,NA,554620,15,3,A,known,26,/Users/dan/Projects/callab/tunkel/Negation2.0/raw_data/Experiment3/positionA/production-results/336OE47KI29I333Z8FAI49AO3MPVWW-308XBLVESJT18DM1U6EE4I3RP0CBRW.json,1,switch,FALSE
38842.00000000058,gun barrel,NA,594570,16,D,6,unknown,26,/Users/dan/Projects/callab/tunkel/Negation2.0/raw_data/Experiment3/positionA/production-results/336OE47KI29I333Z8FAI49AO3MPVWW-308XBLVESJT18DM1U6EE4I3RP0CBRW.json,1,standard,FALSE
